# k-axis, Phonon energy [meV], band-1, band-2, band-3, band-4, band-5, band-6, band-7
     1     0.000000    0.000000     0.000000     0.000000   104.673376   104.673376   104.673376 
     2     0.018981    1.821823     1.821823     2.530799   104.679835   104.679835   104.747057 
     3     0.037962    3.641544     3.641544     5.061968   104.699213   104.699213   104.967134 
     4     0.056943    5.457068     5.457068     7.593875   104.731423   104.731423   105.330680 
     5     0.075924    7.266300     7.266300    10.126884   104.776329   104.776329   105.832923 
     6     0.094905    9.067164     9.067164    12.661346   104.833769   104.833769   106.467366 
     7     0.113886   10.857596    10.857596    15.197630   104.903483   104.903483   107.225938 
     8     0.132867   12.635546    12.635546    17.736046   104.985210   104.985210   108.099191 
     9     0.151848   14.399000    14.399000    20.276929   105.078629   105.078629   109.076563 
    10     0.170829   16.145953    16.145953    22.820577   105.183355   105.183355   110.146522 
    11     0.189810   17.874432    17.874432    25.367250   105.298966   105.298966   111.296846 
    12     0.208792   19.582517    19.582517    27.917221   105.425017   105.425017   112.514826 
    13     0.227773   21.268298    21.268298    30.470664   105.560986   105.560986   113.787480 
    14     0.246754   22.929915    22.929915    33.027739   105.706340   105.706340   115.101718 
    15     0.265735   24.565546    24.565546    35.588571   105.860509   105.860509   116.444520 
    16     0.284716   26.173430    26.173430    38.153184   106.022861   106.022861   117.803056 
    17     0.303697   27.751832    27.751832    40.721541   106.192775   106.192775   119.164840 
    18     0.322678   29.299090    29.299090    43.293556   106.369558   106.369558   120.517809 
    19     0.341659   30.813580    30.813580    45.868992   106.552516   106.552516   121.850396 
    20     0.360640   32.293752    32.293752    48.447553   106.740928   106.740928   123.151603 
    21     0.379621   33.738082    33.738082    51.028804   106.934039   106.934039   124.411078 
    22     0.398602   35.145131    35.145131    53.612213   107.131081   107.131081   125.619016 
    23     0.417583   36.513536    36.513536    56.197072   107.331271   107.331271   126.766451 
    24     0.436564   37.841969    37.841969    58.782563   107.533805   107.533805   127.844953 
    25     0.455545   39.129179    39.129179    61.367682   107.737876   107.737876   128.846711 
    26     0.474526   40.373975    40.373975    63.951277   107.942666   107.942666   129.765031 
    27     0.493507   41.575242    41.575242    66.532020   108.147345   108.147345   130.593465 
    28     0.512488   42.731926    42.731926    69.108398   108.351069   108.351069   131.326311 
    29     0.531469   43.843035    43.843035    71.678715   108.553032   108.553032   131.958733 
    30     0.550450   44.907664    44.907664    74.241084   108.752392   108.752392   132.486516 
    31     0.569431   45.924944    45.924944    76.793398   108.948330   108.948330   132.905816 
    32     0.588412   46.894084    46.894084    79.333389   109.140040   109.140040   133.213658 
    33     0.607394   47.814362    47.814362    81.858564   109.326705   109.326705   133.407687 
    34     0.626375   48.685111    48.685111    84.366270   109.507554   109.507554   133.486043 
    35     0.645356   49.505735    49.505735    86.853606   109.681808   109.681808   133.447237 
    36     0.664337   50.275663    50.275663    89.317535   109.848747   109.848747   133.290774 
    37     0.683318   50.994400    50.994400    91.754808   110.007615   110.007615   133.016034 
    38     0.702299   51.661524    51.661524    94.162017   110.157767   110.157767   132.623638 
    39     0.721280   52.276613    52.276613    96.535589   110.298509   110.298509   132.113832 
    40     0.740261   52.839334    52.839334    98.871806   110.429259   110.429259   131.488105 
    41     0.759242   53.349375    53.349375   101.166800   110.549408   110.549408   130.747696 
    42     0.778223   53.806465    53.806465   103.416603   110.658448   110.658448   129.894590 
    43     0.797204   54.210391    54.210391   105.617124   110.755872   110.755872   128.931017 
    44     0.816185   54.560945    54.560945   107.764209   110.841244   110.841244   127.859458 
    45     0.835166   54.857951    54.857951   109.853620   110.914194   110.914194   126.682888 
    46     0.854147   55.101312    55.101312   110.974374   110.974374   111.881077   125.404406 
    47     0.873128   55.290877    55.290877   111.021524   111.021524   113.842279   124.027236 
    48     0.892109   55.426598    55.426598   111.055420   111.055420   115.732925   122.555085 
    49     0.911090   55.508400    55.508400   111.075901   111.075901   117.548761   120.991636 
    50     0.930071   55.536258    55.536295   111.082881   111.082894   119.313170   119.313207 
    51     0.930071   55.536357    55.536419   111.082844   111.082857   119.313170   119.313182 
    52     0.956915   55.500428    55.662705   111.068648   111.109897   119.284543   119.286650 
    53     0.983758   55.395256    56.029190   111.026966   111.186045   119.201699   119.209783 
    54     1.010601   55.220903    56.622050   110.958306   111.301942   119.068470   119.085964 
    55     1.037444   54.977642    57.419180   110.863437   111.441456   118.891290   118.921591 
    56     1.064288   54.665968    58.391084   110.743436   111.581021   118.679347   118.727240 
    57     1.091131   54.286552    59.501845   110.599694   111.688896   118.444653   118.518941 
    58     1.117974   53.840348    60.710254   110.433945   111.725209   118.202259   118.318714 
    59     1.144817   53.328646    61.970944   110.248198   111.644796   117.970169   118.152506 
    60     1.171661   52.753118    63.235441   110.044822   111.404510   117.769123   118.043540 
    61     1.198504   52.115886    64.453507   109.826431   110.973345   117.622045   118.002875 
    62     1.225347   51.419515    65.574634   109.595915   110.338729   117.552951   118.023889 
    63     1.252190   50.667080    66.550096   109.356385   109.503996   117.585260   118.085334 
    64     1.279034   49.862115    67.335398   108.480578   109.111091   117.739467   118.159672 
    65     1.305877   49.008612    67.892985   107.281481   108.863379   118.030584   118.220125 
    66     1.332720   48.110947    68.194790   105.918135   108.616584   118.244127   118.465556 
    67     1.359563   47.173782    68.223938   104.399702   108.373956   118.214223   119.041579 
    68     1.386407   46.201990    67.975234   102.733461   108.138530   118.117928   119.745562 
    69     1.413250   45.200442    67.454195   100.925386   107.913097   117.947108   120.555077 
    70     1.440093   44.173888    66.674969    98.980660   107.700000   117.697524   121.440332 
    71     1.466936   43.126790    65.657725    96.904033   107.501161   117.368271   122.366884 
    72     1.493780   42.063091    64.425996    94.700003   107.317919   116.961418   123.298160 
    73     1.520623   40.986052    63.004528    92.373010   107.151017   116.481590   124.197709 
    74     1.547466   39.898091    61.417597    89.927467   107.000604   115.935607   125.030978 
    75     1.574309   38.800607    59.687977    87.367764   106.866185   115.332048   125.766180 
    76     1.601153   37.693949    57.836348    84.698350   106.746656   114.680880   126.375294 
    77     1.627996   36.577237    55.881009    81.923653   106.640418   113.993076   126.834144 
    78     1.654839   35.448498    53.837819    79.048135   106.545387   113.280129   127.122769 
    79     1.681682   34.304621    51.720265    76.076310   106.459159   112.553656   127.225796 
    80     1.708526   33.141503    49.539631    73.012764   106.379117   111.825050   127.131944 
    81     1.735369   31.954258    47.305201    69.862122   106.302560   111.105061   126.834392 
    82     1.762212   30.737357    45.024502    66.629158   106.226870   110.403483   126.331033 
    83     1.789056   29.484948    42.703510    63.318718   106.149655   109.728958   125.624099 
    84     1.815899   28.191081    40.346948    59.935825   106.068857   109.088713   124.720285 
    85     1.842742   26.850014    37.958572    56.485548   105.982865   108.488525   123.631219 
    86     1.869585   25.456479    35.541359    52.973083   105.890661   107.932636   122.372748 
    87     1.896429   24.005875    33.097825    49.403650   105.791836   107.423835   120.965550 
    88     1.923272   22.494572    30.630201    45.782491   105.686639   106.963534   119.434695 
    89     1.950115   20.920038    28.140658    42.114803   105.575975   106.551933   117.809639 
    90     1.976958   19.280973    25.631427    38.405632   105.461368   106.188176   116.123846 
    91     2.003802   17.577438    23.104925    34.659936   105.344901   105.870601   114.414435 
    92     2.030645   15.810847    20.563732    30.882401   105.229141   105.596952   112.721488 
    93     2.057488   13.984002    18.010562    27.077542   105.116939   105.364564   111.087283 
    94     2.084331   12.101075    15.448193    23.249548   105.011370   105.170610   109.555150 
    95     2.111175   10.167465    12.879241    19.402386   104.915533   105.012238   108.168087 
    96     2.138018    8.189730    10.306047    15.539752   104.832405   104.886782   106.967105 
    97     2.164861    6.175428     7.730487    11.665048   104.764650   104.791863   105.989473 
    98     2.191704    4.132946     5.153871     7.781512   104.714525   104.725534   105.266744 
    99     2.218548    2.071317     2.576948     3.892188   104.683753   104.686332   104.823007 
   100     2.245391    0.000000     0.000000     0.000000   104.673376   104.673376   104.673376 
   101     2.245391    0.000000     0.000000     0.000000   104.673376   104.673376   104.673376 
   102     2.261829    1.379565     1.379565     2.444591   104.677591   104.677591   104.729898 
   103     2.278267    2.756640     2.756640     4.890118   104.690175   104.690175   104.898821 
   104     2.294705    4.128751     4.128751     7.337502   104.710991   104.710991   105.178086 
   105     2.311143    5.493463     5.493463     9.787622   104.739755   104.739755   105.564358 
   106     2.327581    6.848389     6.848390    12.241305   104.776118   104.776118   106.053075 
   107     2.344019    8.191215     8.191215    14.699304   104.819622   104.819622   106.638558 
   108     2.360457    9.519706     9.519708    17.162291   104.869760   104.869760   107.314112 
   109     2.376895   10.831731    10.831731    19.630832   104.925898   104.925898   108.072201 
   110     2.393333   12.125264    12.125264    22.105398   104.987392   104.987392   108.904553 
   111     2.409772   13.398407    13.398407    24.586337   105.053536   105.053536   109.802341 
   112     2.426210   14.649365    14.649365    27.073872   105.123597   105.123597   110.756293 
   113     2.442648   15.876544    15.876544    29.568089   105.196807   105.196807   111.756861 
   114     2.459086   17.078406    17.078406    32.068964   105.272410   105.272410   112.794363 
   115     2.475524   18.253637    18.253637    34.576311   105.349637   105.349637   113.859054 
   116     2.491962   19.401023    19.401023    37.089795   105.427744   105.427744   114.941275 
   117     2.508400   20.519508    20.519508    39.608944   105.506050   105.506050   116.031506 
   118     2.524838   21.608164    21.608164    42.133115   105.583860   105.583860   117.120484 
   119     2.541276   22.666247    22.666247    44.661514   105.660554   105.660554   118.199259 
   120     2.557714   23.693074    23.693074    47.193173   105.735574   105.735574   119.259201 
   121     2.574152   24.688125    24.688125    49.726952   105.808425   105.808425   120.292141 
   122     2.590590   25.650991    25.650991    52.261525   105.878647   105.878647   121.290279 
   123     2.607028   26.581349    26.581349    54.795379   105.945882   105.945882   122.246338 
   124     2.623466   27.478964    27.478964    57.326802   106.009830   106.009830   123.153500 
   125     2.639905   28.343675    28.343675    59.853899   106.070258   106.070258   124.005416 
   126     2.656343   29.175383    29.175383    62.374536   106.126992   106.126992   124.796408 
   127     2.672781   29.974049    29.974049    64.886408   106.179931   106.179931   125.520947 
   128     2.689219   30.739638    30.739638    67.386973   106.229015   106.229015   126.174446 
   129     2.705657   31.472162    31.472162    69.873454   106.274280   106.274280   126.752441 
   130     2.722095   32.171632    32.171632    72.342851   106.315751   106.315751   127.251460 
   131     2.738533   32.838074    32.838074    74.791927   106.353540   106.353540   127.668281 
   132     2.754971   33.471488    33.471488    77.217186   106.387771   106.387784   128.000052 
   133     2.771409   34.071861    34.071861    79.614848   106.418617   106.418617   128.244912 
   134     2.787847   34.639169    34.639169    81.980858   106.446252   106.446252   128.401127 
   135     2.804285   35.173362    35.173362    84.310789   106.470863   106.470863   128.468076 
   136     2.820723   35.674328    35.674340    86.599881   106.492658   106.492658   128.445512 
   137     2.837161   36.141993    36.141993    88.842841   106.511863   106.511863   128.333806 
   138     2.853599   36.576183    36.576183    91.033840   106.528687   106.528687   128.134694 
   139     2.870037   36.976762    36.976762    93.166284   106.543329   106.543329   127.850408 
   140     2.886476   37.343520    37.343532    95.232596   106.555987   106.555987   127.484791 
   141     2.902914   37.676282    37.676282    97.223827   106.566848   106.566848   127.043422 
   142     2.919352   37.974826    37.974826    99.129089   106.576084   106.576084   126.533740 
   143     2.935790   38.238941    38.238941   100.934796   106.583870   106.583870   125.966656 
   144     2.952228   38.468415    38.468415   102.623379   106.590317   106.590317   125.357170 
   145     2.968666   38.663051    38.663051   104.171567   106.595574   106.595574   124.726360 
   146     2.985104   38.822676    38.822688   105.548154   106.599727   106.599727   124.103360 
   147     3.001542   38.947139    38.947139   106.602876   106.602876   106.711706   123.528192 
   148     3.017980   39.036293    39.036293   106.605083   106.605083   107.610016   123.051824 
   149     3.034418   39.090063    39.090063   106.606385   106.606397   108.185109   122.731335 
   150     3.050856   39.108412    39.108412   106.606819   106.606819   108.387841   122.615365 
