# k-axis, Phonon energy [meV], band-1, band-2, band-3, band-4, band-5, band-6, band-7
     1     0.000000    0.000000     0.000000     0.000000    48.908709    48.908709    48.908709 
     2     0.012310    0.562179     0.562179     0.946245    48.904754    48.904754    48.906068 
     3     0.024621    1.123972     1.123972     1.892149    48.892877    48.892877    48.898158 
     4     0.036931    1.684992     1.684992     2.837372    48.873114    48.873114    48.884942 
     5     0.049242    2.244856     2.244856     3.781569    48.845492    48.845492    48.866395 
     6     0.061552    2.803178     2.803178     4.724392    48.810058    48.810058    48.842516 
     7     0.073862    3.359573     3.359573     5.665495    48.766864    48.766864    48.813220 
     8     0.086173    3.913658     3.913658     6.604524    48.715995    48.715995    48.778480 
     9     0.098483    4.465050     4.465050     7.541117    48.657538    48.657538    48.738224 
    10     0.110793    5.013368     5.013368     8.474914    48.591593    48.591593    48.692376 
    11     0.123104    5.558230     5.558230     9.405543    48.518284    48.518284    48.640838 
    12     0.135414    6.099256     6.099256    10.332630    48.437746    48.437746    48.583522 
    13     0.147725    6.636064     6.636064    11.255788    48.350142    48.350142    48.520317 
    14     0.160035    7.168272     7.168272    12.174631    48.255632    48.255632    48.451086 
    15     0.172345    7.695498     7.695498    13.088755    48.154415    48.154415    48.375694 
    16     0.184656    8.217358     8.217358    13.997776    48.046713    48.046713    48.294004 
    17     0.196966    8.733465     8.733465    14.901255    47.932751    47.932751    48.205842 
    18     0.209277    9.243429     9.243429    15.798809    47.812775    47.812775    48.111022 
    19     0.221587    9.746854     9.746854    16.689989    47.687097    47.687097    48.009346 
    20     0.233897   10.243340    10.243340    17.574376    47.555988    47.555988    47.900628 
    21     0.246208   10.732480    10.732480    18.451534    47.419808    47.419808    47.784620 
    22     0.258518   11.213855    11.213855    19.321031    47.278918    47.278918    47.661111 
    23     0.270829   11.687040    11.687040    20.182444    47.133675    47.133675    47.529828 
    24     0.283139   12.151596    12.151596    21.035315    46.984527    46.984527    47.390512 
    25     0.295449   12.607067    12.607067    21.879209    46.831920    46.831920    47.242901 
    26     0.307760   13.052999    13.052999    22.713682    46.676313    46.676313    47.086687 
    27     0.320070   13.488900    13.488900    23.538310    46.518238    46.518238    46.921582 
    28     0.332380   13.914251    13.914251    24.352648    46.358242    46.358242    46.747279 
    29     0.344691   14.328567    14.328567    25.156273    46.196907    46.196907    46.563454 
    30     0.357001   14.731266    14.731266    25.948778    46.034828    46.034828    46.369772 
    31     0.369312   15.121803    15.121803    26.729728    45.872662    45.872662    46.165899 
    32     0.381622   15.499595    15.499595    27.498727    45.711104    45.711104    45.951513 
    33     0.393932   15.864010    15.864010    28.255389    45.550847    45.550847    45.726254 
    34     0.406243   16.214427    16.214427    28.999344    45.392649    45.392649    45.489775 
    35     0.418553   16.550189    16.550189    29.730218    45.237264    45.237264    45.241728 
    36     0.430864   16.870616    16.870616    30.447665    44.981779    45.085501    45.085501 
    37     0.443174   17.175011    17.175011    31.151351    44.709581    44.938163    44.938163 
    38     0.455484   17.462670    17.462670    31.840990    44.424799    44.796094    44.796094 
    39     0.467795   17.732872    17.732872    32.516272    44.127110    44.660113    44.660113 
    40     0.480105   17.984898    17.984898    33.176949    43.816169    44.531087    44.531087 
    41     0.492416   18.218030    18.218030    33.822761    43.491700    44.409822    44.409822 
    42     0.504726   18.431573    18.431573    34.453496    43.153371    44.297137    44.297137 
    43     0.517036   18.624821    18.624821    35.068970    42.800921    44.193836    44.193836 
    44     0.529347   18.797141    18.797141    35.669009    42.434089    44.100665    44.100665 
    45     0.541657   18.947913    18.947913    36.253475    42.052603    44.018318    44.018318 
    46     0.553967   19.076579    19.076579    36.822246    41.656251    43.947439    43.947439 
    47     0.566278   19.182632    19.182632    37.375259    41.244811    43.888598    43.888598 
    48     0.578588   19.265674    19.265674    37.912439    40.818121    43.842254    43.842254 
    49     0.590899   19.325358    19.325358    38.433763    40.375996    43.808804    43.808804 
    50     0.603209   19.361423    19.361423    38.939242    39.918299    43.788533    43.788533 
    51     0.615519   19.373722    19.373747    39.436910    39.436922    43.781591    43.781603 
    52     0.615519   19.373735    19.373759    39.436910    39.436922    43.781591    43.781603 
    53     0.632929   19.364473    19.405808    39.414593    39.429322    43.786674    43.792959 
    54     0.650338   19.337272    19.498731    39.349801    39.407427    43.801551    43.825554 
    55     0.667748   19.292094    19.648884    39.244505    39.372440    43.826211    43.877340 
    56     0.685157   19.228852    19.850438    39.101494    39.326382    43.860591    43.945368 
    57     0.702567   19.147446    20.095608    38.923943    39.272078    43.904653    44.026253 
    58     0.719977   19.047742    20.374873    38.714987    39.213225    43.958287    44.116646 
    59     0.737386   18.929614    20.677335    38.477391    39.154322    44.021368    44.213475 
    60     0.754796   18.792888    20.990992    38.213438    39.100664    44.093772    44.314085 
    61     0.772205   18.637442    21.303136    37.924862    39.058275    44.175289    44.416393 
    62     0.789615   18.463126    21.600701    37.612854    39.033702    44.265720    44.518788 
    63     0.807024   18.269817    21.870655    37.278071    39.033752    44.364792    44.620129 
    64     0.824434   18.057427    22.100563    36.920760    39.065143    44.472196    44.719722 
    65     0.841843   17.825882    22.279045    36.540725    39.134002    44.587584    44.817233 
    66     0.859253   17.575157    22.396429    36.137418    39.245299    44.710535    44.912660 
    67     0.876662   17.305302    22.445215    35.710034    39.402431    44.840615    45.006277 
    68     0.894072   17.016404    22.420444    35.257470    39.606762    44.977291    45.098580 
    69     0.911481   16.708599    22.319785    34.778473    39.857599    45.120029    45.190276 
    70     0.928891   16.382122    22.143398    34.271593    40.152212    45.268235    45.282145 
    71     0.946300   16.037272    21.893628    33.735318    40.486252    45.375105    45.421238 
    72     0.963710   15.674395    21.574404    33.168084    40.854138    45.470062    45.578358 
    73     0.981119   15.293950    21.190773    32.568319    41.249609    45.567944    45.738900 
    74     0.998529   14.896445    20.748388    31.934508    41.666194    45.669608    45.902095 
    75     1.015938   14.482476    20.253137    31.265214    42.097521    45.775796    46.067174 
    76     1.033348   14.052687    19.710799    30.559148    42.537588    45.887155    46.233369 
    77     1.050757   13.607822    19.126915    29.815169    42.980952    46.004130    46.399887 
    78     1.068167   13.148649    18.506681    29.032347    43.422730    46.127019    46.565933 
    79     1.085576   12.676000    17.854843    28.209950    43.858743    46.255884    46.730740 
    80     1.102986   12.190748    17.175718    27.347471    44.285346    46.390626    46.893551 
    81     1.120395   11.693801    16.473235    26.444661    44.699551    46.530909    47.053609 
    82     1.137805   11.186092    15.750878    25.501508    45.098866    46.676226    47.210233 
    83     1.155214   10.668562    15.011784    24.518223    45.481270    46.825857    47.362728 
    84     1.172624   10.142158    14.258729    23.495301    45.845213    46.978936    47.510475 
    85     1.190034    9.607816    13.494194    22.433412    46.189505    47.134431    47.652878 
    86     1.207443    9.066454    12.720323    21.333511    46.513279    47.291192    47.789405 
    87     1.224853    8.518958    11.939036    20.196714    46.815989    47.447964    47.919547 
    88     1.242262    7.966177    11.151969    19.024384    47.097299    47.603398    48.042882 
    89     1.259672    7.408908    10.360544    17.818034    47.357087    47.756117    48.159002 
    90     1.277081    6.847893     9.565966    16.579374    47.595438    47.904707    48.267559 
    91     1.294491    6.283810     8.769244    15.310278    47.812527    48.047742    48.368255 
    92     1.311900    5.717267     7.971207    14.012765    48.008664    48.183823    48.460856 
    93     1.329310    5.148804     7.172515    12.688993    48.184244    48.311597    48.545113 
    94     1.346719    4.578881     6.373677    11.341234    48.339666    48.429762    48.620877 
    95     1.364129    4.007889     5.575063     9.971887    48.475424    48.537104    48.687987 
    96     1.381538    3.436147     4.776922     8.583435    48.591940    48.632531    48.746332 
    97     1.398948    2.863902     3.979391     7.178453    48.689686    48.715040    48.795838 
    98     1.416357    2.291343     3.182516     5.759584    48.769046    48.783774    48.836416 
    99     1.433767    1.718603     2.386259     4.329534    48.830378    48.838003    48.868019 
   100     1.451176    1.145769     1.590526     2.891057    48.873970    48.877144    48.890620 
   101     1.468586    0.572892     0.795165     1.446941    48.900030    48.900799    48.904184 
   102     1.485995    0.000000     0.000000     0.000000    48.908709    48.908709    48.908709 
   103     1.485995    0.000000     0.000000     0.000000    48.908709    48.908709    48.908709 
   104     1.496656    0.401312     0.401312     0.907463    48.905039    48.906589    48.906589 
   105     1.507318    0.802401     0.802401     1.814466    48.894005    48.900229    48.900229 
   106     1.517979    1.203042     1.203042     2.720549    48.875606    48.889653    48.889653 
   107     1.528640    1.603009     1.603009     3.625251    48.849819    48.874875    48.874875 
   108     1.539301    2.002074     2.002074     4.528117    48.816641    48.855943    48.855943 
   109     1.549962    2.400002     2.400002     5.428690    48.776013    48.832895    48.832895 
   110     1.560623    2.796561     2.796561     6.326520    48.727934    48.805781    48.805781 
   111     1.571284    3.191506     3.191506     7.221154    48.672329    48.774674    48.774674 
   112     1.581945    3.584589     3.584589     8.112149    48.609173    48.739650    48.739650 
   113     1.592606    3.975556     3.975556     8.999062    48.538406    48.700795    48.700795 
   114     1.603268    4.364144     4.364144     9.881456    48.459976    48.658207    48.658207 
   115     1.613929    4.750084     4.750084    10.758900    48.373810    48.612000    48.612000 
   116     1.624590    5.133096     5.133096    11.630967    48.279845    48.562297    48.562297 
   117     1.635251    5.512890     5.512890    12.497234    48.178020    48.509233    48.509233 
   118     1.645912    5.889168     5.889168    13.357283    48.068236    48.452946    48.452946 
   119     1.656573    6.261619     6.261619    14.210712    47.950430    48.393609    48.393609 
   120     1.667234    6.629925     6.629925    15.057123    47.824529    48.331371    48.331371 
   121     1.677895    6.993751     6.993751    15.896108    47.690420    48.266443    48.266443 
   122     1.688556    7.352757     7.352757    16.727270    47.548053    48.198998    48.198998 
   123     1.699218    7.706586     7.706586    17.550249    47.397318    48.129247    48.129247 
   124     1.709879    8.054871     8.054871    18.364649    47.238128    48.057438    48.057438 
   125     1.720540    8.397235     8.397235    19.170110    47.070420    47.983769    47.983769 
   126     1.731201    8.733286     8.733286    19.966260    46.894096    47.908525    47.908525 
   127     1.741862    9.062624     9.062624    20.752739    46.709093    47.831943    47.831943 
   128     1.752523    9.384836     9.384836    21.529189    46.515325    47.754319    47.754319 
   129     1.763184    9.699500     9.699500    22.295249    46.312729    47.675914    47.675914 
   130     1.773845   10.006183    10.006183    23.050560    46.101269    47.597038    47.597038 
   131     1.784506   10.304445    10.304445    23.794762    45.880907    47.518013    47.518013 
   132     1.795167   10.593839    10.593839    24.527509    45.651606    47.439137    47.439137 
   133     1.805829   10.873910    10.873910    25.248415    45.413378    47.360744    47.360744 
   134     1.816490   11.144199    11.144199    25.957085    45.166249    47.283170    47.283170 
   135     1.827151   11.404246    11.404246    26.653109    44.910292    47.206761    47.206761 
   136     1.837812   11.653587    11.653587    27.336053    44.645607    47.131865    47.131865 
   137     1.848473   11.891761    11.891761    28.005421    44.372380    47.058816    47.058816 
   138     1.859134   12.118311    12.118311    28.660667    44.090834    46.987986    46.987986 
   139     1.869795   12.332785    12.332785    29.301173    43.801341    46.919698    46.919698 
   140     1.880456   12.534738    12.534738    29.926181    43.504346    46.854323    46.854323 
   141     1.891117   12.723745    12.723745    30.534799    43.200533    46.792172    46.792172 
   142     1.901779   12.899375    12.899375    31.125898    42.890757    46.733604    46.733604 
   143     1.912440   13.061256    13.061256    31.698066    42.576232    46.678916    46.678916 
   144     1.923101   13.208978    13.208978    32.249417    42.258633    46.628407    46.628407 
   145     1.933762   13.342207    13.342207    32.777498    41.940240    46.582373    46.582373 
   146     1.944423   13.460620    13.460620    33.278910    41.624277    46.541088    46.541088 
   147     1.955084   13.563896    13.563896    33.749042    41.315232    46.504762    46.504762 
   148     1.965745   13.651797    13.651797    34.181398    41.019452    46.473643    46.473643 
   149     1.976406   13.724090    13.724090    34.567062    40.745767    46.447892    46.447892 
   150     1.987067   13.780575    13.780575    34.893923    40.506163    46.427683    46.427683 
   151     1.997729   13.821104    13.821104    35.146780    40.315816    46.413128    46.413128 
   152     2.008390   13.845578    13.845578    35.308835    40.191440    46.404313    46.404313 
   153     2.019051   13.853947    13.853947    35.366002    40.147117    46.401300    46.401300 
