# Temperature [K], Thermal Conductivity (xx, xy, xz, yx, yy, yz, zx, zy, zz) [W/mK]
      0.00         0.0000         0.0000         0.0000         0.0000         0.0000         0.0000         0.0000         0.0000         0.0000
     10.00     31122.8178         0.0010         0.0010         0.0010     31122.8178         0.0010         0.0010         0.0010     31122.8178
     20.00      1625.2914         0.0015         0.0015         0.0015      1625.2914         0.0015         0.0015         0.0015      1625.2914
     30.00       325.2072         0.0009         0.0009         0.0009       325.2072         0.0009         0.0009         0.0009       325.2072
     40.00       157.2914        -0.0004        -0.0004        -0.0004       157.2914        -0.0004        -0.0004        -0.0004       157.2914
     50.00       112.7208        -0.0015        -0.0015        -0.0015       112.7208        -0.0015        -0.0015        -0.0015       112.7208
     60.00        93.9711        -0.0022        -0.0022        -0.0022        93.9711        -0.0022        -0.0022        -0.0022        93.9711
     70.00        83.0351        -0.0026        -0.0026        -0.0026        83.0351        -0.0026        -0.0026        -0.0026        83.0351
     80.00        75.2220        -0.0028        -0.0028        -0.0028        75.2220        -0.0028        -0.0028        -0.0028        75.2220
     90.00        69.0064        -0.0029        -0.0029        -0.0029        69.0064        -0.0029        -0.0029        -0.0029        69.0064
    100.00        63.7911        -0.0028        -0.0028        -0.0028        63.7911        -0.0028        -0.0028        -0.0028        63.7911
    110.00        59.2949        -0.0028        -0.0028        -0.0028        59.2949        -0.0028        -0.0028        -0.0028        59.2949
    120.00        55.3597        -0.0027        -0.0027        -0.0027        55.3597        -0.0027        -0.0027        -0.0027        55.3597
    130.00        51.8821        -0.0026        -0.0026        -0.0026        51.8821        -0.0026        -0.0026        -0.0026        51.8821
    140.00        48.7873        -0.0025        -0.0025        -0.0025        48.7873        -0.0025        -0.0025        -0.0025        48.7873
    150.00        46.0175        -0.0024        -0.0024        -0.0024        46.0175        -0.0024        -0.0024        -0.0024        46.0175
    160.00        43.5265        -0.0023        -0.0023        -0.0023        43.5265        -0.0023        -0.0023        -0.0023        43.5265
    170.00        41.2763        -0.0022        -0.0022        -0.0022        41.2763        -0.0022        -0.0022        -0.0022        41.2763
    180.00        39.2352        -0.0021        -0.0021        -0.0021        39.2352        -0.0021        -0.0021        -0.0021        39.2352
    190.00        37.3769        -0.0020        -0.0020        -0.0020        37.3769        -0.0020        -0.0020        -0.0020        37.3769
    200.00        35.6789        -0.0020        -0.0020        -0.0020        35.6789        -0.0020        -0.0020        -0.0020        35.6789
    210.00        34.1223        -0.0019        -0.0019        -0.0019        34.1223        -0.0019        -0.0019        -0.0019        34.1223
    220.00        32.6907        -0.0018        -0.0018        -0.0018        32.6907        -0.0018        -0.0018        -0.0018        32.6907
    230.00        31.3702        -0.0017        -0.0017        -0.0017        31.3702        -0.0017        -0.0017        -0.0017        31.3702
    240.00        30.1489        -0.0017        -0.0017        -0.0017        30.1489        -0.0017        -0.0017        -0.0017        30.1489
    250.00        29.0163        -0.0016        -0.0016        -0.0016        29.0163        -0.0016        -0.0016        -0.0016        29.0163
    260.00        27.9634        -0.0016        -0.0016        -0.0016        27.9634        -0.0016        -0.0016        -0.0016        27.9634
    270.00        26.9822        -0.0015        -0.0015        -0.0015        26.9822        -0.0015        -0.0015        -0.0015        26.9822
    280.00        26.0659        -0.0015        -0.0015        -0.0015        26.0659        -0.0015        -0.0015        -0.0015        26.0659
    290.00        25.2084        -0.0014        -0.0014        -0.0014        25.2084        -0.0014        -0.0014        -0.0014        25.2084
    300.00        24.4043        -0.0014        -0.0014        -0.0014        24.4043        -0.0014        -0.0014        -0.0014        24.4043
    310.00        23.6489        -0.0013        -0.0013        -0.0013        23.6489        -0.0013        -0.0013        -0.0013        23.6489
    320.00        22.9380        -0.0013        -0.0013        -0.0013        22.9380        -0.0013        -0.0013        -0.0013        22.9380
    330.00        22.2679        -0.0013        -0.0013        -0.0013        22.2679        -0.0013        -0.0013        -0.0013        22.2679
    340.00        21.6351        -0.0012        -0.0012        -0.0012        21.6351        -0.0012        -0.0012        -0.0012        21.6351
    350.00        21.0368        -0.0012        -0.0012        -0.0012        21.0368        -0.0012        -0.0012        -0.0012        21.0368
    360.00        20.4701        -0.0012        -0.0012        -0.0012        20.4701        -0.0012        -0.0012        -0.0012        20.4701
    370.00        19.9328        -0.0011        -0.0011        -0.0011        19.9328        -0.0011        -0.0011        -0.0011        19.9328
    380.00        19.4226        -0.0011        -0.0011        -0.0011        19.4226        -0.0011        -0.0011        -0.0011        19.4226
    390.00        18.9375        -0.0011        -0.0011        -0.0011        18.9375        -0.0011        -0.0011        -0.0011        18.9375
    400.00        18.4757        -0.0011        -0.0011        -0.0011        18.4757        -0.0011        -0.0011        -0.0011        18.4757
    410.00        18.0357        -0.0010        -0.0010        -0.0010        18.0357        -0.0010        -0.0010        -0.0010        18.0357
    420.00        17.6159        -0.0010        -0.0010        -0.0010        17.6159        -0.0010        -0.0010        -0.0010        17.6159
    430.00        17.2150        -0.0010        -0.0010        -0.0010        17.2150        -0.0010        -0.0010        -0.0010        17.2150
    440.00        16.8318        -0.0010        -0.0010        -0.0010        16.8318        -0.0010        -0.0010        -0.0010        16.8318
    450.00        16.4651        -0.0009        -0.0009        -0.0009        16.4651        -0.0009        -0.0009        -0.0009        16.4651
    460.00        16.1139        -0.0009        -0.0009        -0.0009        16.1139        -0.0009        -0.0009        -0.0009        16.1139
    470.00        15.7772        -0.0009        -0.0009        -0.0009        15.7772        -0.0009        -0.0009        -0.0009        15.7772
    480.00        15.4542        -0.0009        -0.0009        -0.0009        15.4542        -0.0009        -0.0009        -0.0009        15.4542
    490.00        15.1440        -0.0009        -0.0009        -0.0009        15.1440        -0.0009        -0.0009        -0.0009        15.1440
    500.00        14.8459        -0.0009        -0.0009        -0.0009        14.8459        -0.0009        -0.0009        -0.0009        14.8459
    510.00        14.5593        -0.0008        -0.0008        -0.0008        14.5593        -0.0008        -0.0008        -0.0008        14.5593
    520.00        14.2834        -0.0008        -0.0008        -0.0008        14.2834        -0.0008        -0.0008        -0.0008        14.2834
    530.00        14.0178        -0.0008        -0.0008        -0.0008        14.0178        -0.0008        -0.0008        -0.0008        14.0178
    540.00        13.7617        -0.0008        -0.0008        -0.0008        13.7617        -0.0008        -0.0008        -0.0008        13.7617
    550.00        13.5148        -0.0008        -0.0008        -0.0008        13.5148        -0.0008        -0.0008        -0.0008        13.5148
    560.00        13.2765        -0.0008        -0.0008        -0.0008        13.2765        -0.0008        -0.0008        -0.0008        13.2765
    570.00        13.0465        -0.0008        -0.0008        -0.0008        13.0465        -0.0008        -0.0008        -0.0008        13.0465
    580.00        12.8242        -0.0007        -0.0007        -0.0007        12.8242        -0.0007        -0.0007        -0.0007        12.8242
    590.00        12.6094        -0.0007        -0.0007        -0.0007        12.6094        -0.0007        -0.0007        -0.0007        12.6094
    600.00        12.4015        -0.0007        -0.0007        -0.0007        12.4015        -0.0007        -0.0007        -0.0007        12.4015
    610.00        12.2004        -0.0007        -0.0007        -0.0007        12.2004        -0.0007        -0.0007        -0.0007        12.2004
    620.00        12.0057        -0.0007        -0.0007        -0.0007        12.0057        -0.0007        -0.0007        -0.0007        12.0057
    630.00        11.8170        -0.0007        -0.0007        -0.0007        11.8170        -0.0007        -0.0007        -0.0007        11.8170
    640.00        11.6342        -0.0007        -0.0007        -0.0007        11.6342        -0.0007        -0.0007        -0.0007        11.6342
    650.00        11.4569        -0.0007        -0.0007        -0.0007        11.4569        -0.0007        -0.0007        -0.0007        11.4569
    660.00        11.2849        -0.0007        -0.0007        -0.0007        11.2849        -0.0007        -0.0007        -0.0007        11.2849
    670.00        11.1180        -0.0006        -0.0006        -0.0006        11.1180        -0.0006        -0.0006        -0.0006        11.1180
    680.00        10.9559        -0.0006        -0.0006        -0.0006        10.9559        -0.0006        -0.0006        -0.0006        10.9559
    690.00        10.7985        -0.0006        -0.0006        -0.0006        10.7985        -0.0006        -0.0006        -0.0006        10.7985
    700.00        10.6455        -0.0006        -0.0006        -0.0006        10.6455        -0.0006        -0.0006        -0.0006        10.6455
    710.00        10.4967        -0.0006        -0.0006        -0.0006        10.4967        -0.0006        -0.0006        -0.0006        10.4967
    720.00        10.3520        -0.0006        -0.0006        -0.0006        10.3520        -0.0006        -0.0006        -0.0006        10.3520
    730.00        10.2113        -0.0006        -0.0006        -0.0006        10.2113        -0.0006        -0.0006        -0.0006        10.2113
    740.00        10.0743        -0.0006        -0.0006        -0.0006        10.0743        -0.0006        -0.0006        -0.0006        10.0743
    750.00         9.9410        -0.0006        -0.0006        -0.0006         9.9410        -0.0006        -0.0006        -0.0006         9.9410
    760.00         9.8111        -0.0006        -0.0006        -0.0006         9.8111        -0.0006        -0.0006        -0.0006         9.8111
    770.00         9.6845        -0.0006        -0.0006        -0.0006         9.6845        -0.0006        -0.0006        -0.0006         9.6845
    780.00         9.5612        -0.0006        -0.0006        -0.0006         9.5612        -0.0006        -0.0006        -0.0006         9.5612
    790.00         9.4409        -0.0005        -0.0005        -0.0005         9.4409        -0.0005        -0.0005        -0.0005         9.4409
    800.00         9.3236        -0.0005        -0.0005        -0.0005         9.3236        -0.0005        -0.0005        -0.0005         9.3236
    810.00         9.2092        -0.0005        -0.0005        -0.0005         9.2092        -0.0005        -0.0005        -0.0005         9.2092
    820.00         9.0976        -0.0005        -0.0005        -0.0005         9.0976        -0.0005        -0.0005        -0.0005         9.0976
    830.00         8.9886        -0.0005        -0.0005        -0.0005         8.9886        -0.0005        -0.0005        -0.0005         8.9886
    840.00         8.8822        -0.0005        -0.0005        -0.0005         8.8822        -0.0005        -0.0005        -0.0005         8.8822
    850.00         8.7783        -0.0005        -0.0005        -0.0005         8.7783        -0.0005        -0.0005        -0.0005         8.7783
    860.00         8.6768        -0.0005        -0.0005        -0.0005         8.6768        -0.0005        -0.0005        -0.0005         8.6768
    870.00         8.5776        -0.0005        -0.0005        -0.0005         8.5776        -0.0005        -0.0005        -0.0005         8.5776
    880.00         8.4806        -0.0005        -0.0005        -0.0005         8.4806        -0.0005        -0.0005        -0.0005         8.4806
    890.00         8.3858        -0.0005        -0.0005        -0.0005         8.3858        -0.0005        -0.0005        -0.0005         8.3858
    900.00         8.2931        -0.0005        -0.0005        -0.0005         8.2931        -0.0005        -0.0005        -0.0005         8.2931
    910.00         8.2024        -0.0005        -0.0005        -0.0005         8.2024        -0.0005        -0.0005        -0.0005         8.2024
    920.00         8.1137        -0.0005        -0.0005        -0.0005         8.1137        -0.0005        -0.0005        -0.0005         8.1137
    930.00         8.0268        -0.0005        -0.0005        -0.0005         8.0268        -0.0005        -0.0005        -0.0005         8.0268
    940.00         7.9418        -0.0005        -0.0005        -0.0005         7.9418        -0.0005        -0.0005        -0.0005         7.9418
    950.00         7.8586        -0.0005        -0.0005        -0.0005         7.8586        -0.0005        -0.0005        -0.0005         7.8586
    960.00         7.7771        -0.0005        -0.0005        -0.0005         7.7771        -0.0005        -0.0005        -0.0005         7.7771
    970.00         7.6973        -0.0004        -0.0004        -0.0004         7.6973        -0.0004        -0.0004        -0.0004         7.6973
    980.00         7.6191        -0.0004        -0.0004        -0.0004         7.6191        -0.0004        -0.0004        -0.0004         7.6191
    990.00         7.5424        -0.0004        -0.0004        -0.0004         7.5424        -0.0004        -0.0004        -0.0004         7.5424
   1000.00         7.4673        -0.0004        -0.0004        -0.0004         7.4673        -0.0004        -0.0004        -0.0004         7.4673
