# Temperature [K], Thermal Conductivity (xx, xy, xz, yx, yy, yz, zx, zy, zz) [W/mK]
      0.00         0.0000         0.0000         0.0000         0.0000         0.0000         0.0000         0.0000         0.0000         0.0000
     10.00      1408.2105      1361.9390      1361.9390      1361.9390      1408.2105      1361.9390      1361.9390      1361.9390      1408.2105
     20.00   1185180.6942   1185097.5150   1185097.5150   1185097.5150   1185180.6942   1185097.5150   1185097.5150   1185097.5150   1185180.6942
     30.00   6931673.2485   6931612.6467   6931612.6467   6931612.6467   6931673.2486   6931612.6468   6931612.6467   6931612.6468   6931673.2486
     40.00  13264170.4955  13264118.0102  13264118.0102  13264118.0102  13264170.4957  13264118.0102  13264118.0102  13264118.0102  13264170.4956
     50.00  17237217.2672  17237168.3710  17237168.3710  17237168.3710  17237217.2673  17237168.3711  17237168.3710  17237168.3711  17237217.2673
     60.00  19034993.2953  19034947.2960  19034947.2960  19034947.2960  19034993.2955  19034947.2961  19034947.2960  19034947.2961  19034993.2955
     70.00  19473818.9652  19473775.8206  19473775.8206  19473775.8206  19473818.9654  19473775.8207  19473775.8206  19473775.8207  19473818.9654
     80.00  19174585.6853  19174545.3418  19174545.3418  19174545.3418  19174585.6855  19174545.3419  19174545.3418  19174545.3419  19174585.6855
     90.00  18509687.8288  18509650.1479  18509650.1479  18509650.1479  18509687.8289  18509650.1480  18509650.1479  18509650.1480  18509687.8289
    100.00  17685684.5951  17685649.3854  17685649.3854  17685649.3854  17685684.5952  17685649.3855  17685649.3854  17685649.3855  17685684.5952
    110.00  16813129.9045  16813096.9551  16813096.9551  16813096.9551  16813129.9046  16813096.9552  16813096.9551  16813096.9552  16813129.9046
    120.00  15949427.0948  15949396.1968  15949396.1968  15949396.1968  15949427.0950  15949396.1968  15949396.1968  15949396.1968  15949427.0950
    130.00  15122974.6639  15122945.6210  15122945.6210  15122945.6210  15122974.6640  15122945.6211  15122945.6210  15122945.6211  15122974.6640
    140.00  14346441.5874  14346414.2209  14346414.2209  14346414.2209  14346441.5875  14346414.2209  14346414.2209  14346414.2209  14346441.5875
    150.00  13624041.8185  13624015.9679  13624015.9679  13624015.9679  13624041.8186  13624015.9680  13624015.9679  13624015.9680  13624041.8186
    160.00  12955534.7577  12955510.2805  12955510.2805  12955510.2805  12955534.7578  12955510.2806  12955510.2805  12955510.2806  12955534.7578
    170.00  12338433.7335  12338410.5035  12338410.5035  12338410.5035  12338433.7336  12338410.5036  12338410.5035  12338410.5036  12338433.7336
    180.00  11769225.2714  11769203.1770  11769203.1770  11769203.1770  11769225.2715  11769203.1771  11769203.1770  11769203.1771  11769225.2715
    190.00  11244037.1545  11244016.0971  11244016.0971  11244016.0971  11244037.1546  11244016.0972  11244016.0971  11244016.0972  11244037.1546
    200.00  10758996.9660  10758976.8581  10758976.8581  10758976.8581  10758996.9660  10758976.8582  10758976.8581  10758976.8582  10758996.9660
    210.00  10310416.1055  10310396.8697  10310396.8697  10310396.8697  10310416.1056  10310396.8697  10310396.8697  10310396.8697  10310416.1056
    220.00   9894875.5292   9894857.0963   9894857.0963   9894857.0963   9894875.5293   9894857.0964   9894857.0963   9894857.0964   9894875.5293
    230.00   9509256.6747   9509238.9833   9509238.9833   9509238.9833   9509256.6748   9509238.9833   9509238.9833   9509238.9833   9509256.6748
    240.00   9150742.5019   9150725.4967   9150725.4967   9150725.4967   9150742.5020   9150725.4968   9150725.4967   9150725.4968   9150742.5020
    250.00   8816802.9733   8816786.6050   8816786.6050   8816786.6050   8816802.9733   8816786.6051   8816786.6050   8816786.6051   8816802.9733
    260.00   8505173.1796   8505157.4038   8505157.4038   8505157.4038   8505173.1797   8505157.4039   8505157.4038   8505157.4039   8505173.1797
    270.00   8213828.7525   8213813.5290   8213813.5290   8213813.5290   8213828.7526   8213813.5290   8213813.5290   8213813.5290   8213828.7526
    280.00   7940961.1279   7940946.4204   7940946.4204   7940946.4204   7940961.1279   7940946.4204   7940946.4204   7940946.4204   7940961.1279
    290.00   7684954.0113   7684939.7869   7684939.7869   7684939.7869   7684954.0114   7684939.7869   7684939.7869   7684939.7869   7684954.0114
    300.00   7444361.6896   7444347.9182   7444347.9182   7444347.9182   7444361.6897   7444347.9183   7444347.9182   7444347.9183   7444361.6897
    310.00   7217889.4309   7217876.0852   7217876.0852   7217876.0852   7217889.4310   7217876.0852   7217876.0852   7217876.0852   7217889.4310
    320.00   7004375.9900   7004363.0451   7004363.0451   7004363.0451   7004375.9901   7004363.0451   7004363.0451   7004363.0451   7004375.9901
    330.00   6802778.1169   6802765.5497   6802765.5497   6802765.5497   6802778.1169   6802765.5497   6802765.5497   6802765.5497   6802778.1169
    340.00   6612156.9061   6612144.6957   6612144.6957   6612144.6957   6612156.9062   6612144.6957   6612144.6957   6612144.6957   6612156.9062
    350.00   6431665.8068   6431653.9338   6431653.9338   6431653.9338   6431665.8068   6431653.9338   6431653.9338   6431653.9338   6431665.8068
    360.00   6260540.1075   6260528.5541   6260528.5541   6260528.5541   6260540.1075   6260528.5541   6260528.5541   6260528.5541   6260540.1075
    370.00   6098087.7214   6098076.4711   6098076.4711   6098076.4711   6098087.7215   6098076.4712   6098076.4711   6098076.4712   6098087.7215
    380.00   5943681.1114   5943670.1489   5943670.1489   5943670.1489   5943681.1115   5943670.1489   5943670.1489   5943670.1489   5943681.1115
    390.00   5796750.2092   5796739.5204   5796739.5204   5796739.5204   5796750.2093   5796739.5204   5796739.5204   5796739.5204   5796750.2093
    400.00   5656776.2022   5656765.7738   5656765.7738   5656765.7738   5656776.2022   5656765.7738   5656765.7738   5656765.7738   5656776.2022
    410.00   5523286.0737   5523275.8936   5523275.8936   5523275.8936   5523286.0738   5523275.8936   5523275.8936   5523275.8936   5523286.0738
    420.00   5395847.8002   5395837.8569   5395837.8569   5395837.8569   5395847.8002   5395837.8569   5395837.8569   5395837.8569   5395847.8002
    430.00   5274066.1186   5274056.4015   5274056.4015   5274056.4015   5274066.1186   5274056.4015   5274056.4015   5274056.4015   5274066.1186
    440.00   5157578.7913   5157569.2905   5157569.2905   5157569.2905   5157578.7914   5157569.2905   5157569.2905   5157569.2905   5157578.7914
    450.00   5046053.3040   5046044.0101   5046044.0101   5046044.0101   5046053.3041   5046044.0101   5046044.0101   5046044.0101   5046053.3041
    460.00   4939183.9411   4939174.8454   4939174.8454   4939174.8454   4939183.9412   4939174.8454   4939174.8454   4939174.8454   4939183.9412
    470.00   4836689.1918   4836680.2861   4836680.2861   4836680.2861   4836689.1918   4836680.2861   4836680.2861   4836680.2861   4836689.1918
    480.00   4738309.4443   4738300.7209   4738300.7209   4738300.7209   4738309.4444   4738300.7209   4738300.7209   4738300.7209   4738309.4444
    490.00   4643804.9336   4643796.3852   4643796.3852   4643796.3852   4643804.9336   4643796.3852   4643796.3852   4643796.3852   4643804.9336
    500.00   4552953.9107   4552945.5305   4552945.5305   4552945.5305   4552953.9107   4552945.5305   4552945.5305   4552945.5305   4552953.9107
    510.00   4465551.0075   4465542.7891   4465542.7891   4465542.7891   4465551.0076   4465542.7891   4465542.7891   4465542.7891   4465551.0076
    520.00   4381405.7735   4381397.7108   4381397.7108   4381397.7108   4381405.7736   4381397.7108   4381397.7108   4381397.7108   4381405.7736
    530.00   4300341.3637   4300333.4509   4300333.4509   4300333.4509   4300341.3637   4300333.4509   4300333.4509   4300333.4509   4300341.3637
    540.00   4222193.3606   4222185.5923   4222185.5923   4222185.5923   4222193.3606   4222185.5923   4222185.5923   4222185.5923   4222193.3606
    550.00   4146808.7150   4146801.0861   4146801.0861   4146801.0861   4146808.7151   4146801.0861   4146801.0861   4146801.0861   4146808.7151
    560.00   4074044.7918   4074037.2973   4074037.2973   4074037.2973   4074044.7918   4074037.2974   4074037.2973   4074037.2974   4074044.7918
    570.00   4003768.5084   4003761.1438   4003761.1438   4003761.1438   4003768.5084   4003761.1438   4003761.1438   4003761.1438   4003768.5084
    580.00   3935855.5573   3935848.3181   3935848.3181   3935848.3181   3935855.5573   3935848.3181   3935848.3181   3935848.3181   3935855.5573
    590.00   3870189.7015   3870182.5836   3870182.5836   3870182.5836   3870189.7015   3870182.5836   3870182.5836   3870182.5836   3870189.7015
    600.00   3806662.1367   3806655.1361   3806655.1361   3806655.1361   3806662.1367   3806655.1361   3806655.1361   3806655.1361   3806662.1367
    610.00   3745170.9119   3745164.0249   3745164.0249   3745164.0249   3745170.9120   3745164.0249   3745164.0249   3745164.0249   3745170.9120
    620.00   3685620.4032   3685613.6261   3685613.6261   3685613.6261   3685620.4033   3685613.6261   3685613.6261   3685613.6261   3685620.4033
    630.00   3627920.8345   3627914.1639   3627914.1639   3627914.1639   3627920.8346   3627914.1639   3627914.1639   3627914.1639   3627920.8346
    640.00   3571987.8411   3571981.2736   3571981.2736   3571981.2736   3571987.8411   3571981.2736   3571981.2736   3571981.2736   3571987.8411
    650.00   3517742.0709   3517735.6035   3517735.6035   3517735.6035   3517742.0709   3517735.6035   3517735.6035   3517735.6035   3517742.0709
    660.00   3465108.8210   3465102.4507   3465102.4507   3465102.4507   3465108.8210   3465102.4507   3465102.4507   3465102.4507   3465108.8210
    670.00   3414017.7043   3414011.4282   3414011.4282   3414011.4282   3414017.7043   3414011.4282   3414011.4282   3414011.4282   3414017.7043
    680.00   3364402.3443   3364396.1597   3364396.1597   3364396.1597   3364402.3443   3364396.1597   3364396.1597   3364396.1597   3364402.3443
    690.00   3316200.0958   3316194.0001   3316194.0001   3316194.0001   3316200.0958   3316194.0001   3316194.0001   3316194.0001   3316200.0958
    700.00   3269351.7880   3269345.7787   3269345.7787   3269345.7787   3269351.7880   3269345.7787   3269345.7787   3269345.7787   3269351.7880
    710.00   3223801.4883   3223795.5629   3223795.5629   3223795.5629   3223801.4883   3223795.5629   3223795.5629   3223795.5629   3223801.4883
    720.00   3179496.2852   3179490.4414   3179490.4414   3179490.4414   3179496.2852   3179490.4414   3179490.4414   3179490.4414   3179496.2852
    730.00   3136386.0883   3136380.3240   3136380.3240   3136380.3240   3136386.0883   3136380.3240   3136380.3240   3136380.3240   3136386.0883
    740.00   3094423.4441   3094417.7571   3094417.7571   3094417.7571   3094423.4441   3094417.7571   3094417.7571   3094417.7571   3094423.4441
    750.00   3053563.3651   3053557.7535   3053557.7535   3053557.7535   3053563.3652   3053557.7535   3053557.7535   3053557.7535   3053563.3652
    760.00   3013763.1733   3013757.6350   3013757.6350   3013757.6350   3013763.1734   3013757.6350   3013757.6350   3013757.6350   3013763.1734
    770.00   2974982.3541   2974976.8871   2974976.8871   2974976.8871   2974982.3541   2974976.8871   2974976.8871   2974976.8871   2974982.3541
    780.00   2937182.4217   2937177.0243   2937177.0243   2937177.0243   2937182.4217   2937177.0244   2937177.0243   2937177.0244   2937182.4217
    790.00   2900326.7945   2900321.4651   2900321.4651   2900321.4651   2900326.7946   2900321.4651   2900321.4651   2900321.4651   2900326.7946
    800.00   2864380.6795   2864375.4163   2864375.4163   2864375.4163   2864380.6796   2864375.4163   2864375.4163   2864375.4163   2864380.6796
    810.00   2829310.9644   2829305.7657   2829305.7657   2829305.7657   2829310.9644   2829305.7657   2829305.7657   2829305.7657   2829310.9644
    820.00   2795086.1178   2795080.9822   2795080.9822   2795080.9822   2795086.1178   2795080.9822   2795080.9822   2795080.9822   2795086.1178
    830.00   2761676.0969   2761671.0228   2761671.0228   2761671.0228   2761676.0969   2761671.0228   2761671.0228   2761671.0228   2761676.0969
    840.00   2729052.2606   2729047.2465   2729047.2465   2729047.2465   2729052.2606   2729047.2465   2729047.2465   2729047.2465   2729052.2606
    850.00   2697187.2891   2697182.3337   2697182.3337   2697182.3337   2697187.2891   2697182.3337   2697182.3337   2697182.3337   2697187.2891
    860.00   2666055.1090   2666050.2109   2666050.2109   2666050.2109   2666055.1090   2666050.2109   2666050.2109   2666050.2109   2666055.1090
    870.00   2635630.8233   2635625.9812   2635625.9812   2635625.9812   2635630.8233   2635625.9812   2635625.9812   2635625.9812   2635630.8233
    880.00   2605890.6460   2605885.8586   2605885.8586   2605885.8586   2605890.6460   2605885.8586   2605885.8586   2605885.8586   2605890.6460
    890.00   2576811.8410   2576807.1071   2576807.1071   2576807.1071   2576811.8410   2576807.1071   2576807.1071   2576807.1071   2576811.8410
    900.00   2548372.6651   2548367.9836   2548367.9836   2548367.9836   2548372.6651   2548367.9836   2548367.9836   2548367.9836   2548372.6651
    910.00   2520552.3146   2520547.6843   2520547.6843   2520547.6843   2520552.3146   2520547.6843   2520547.6843   2520547.6843   2520552.3146
    920.00   2493330.8752   2493326.2950   2493326.2950   2493326.2950   2493330.8753   2493326.2950   2493326.2950   2493326.2950   2493330.8753
    930.00   2466689.2753   2466684.7441   2466684.7441   2466684.7441   2466689.2753   2466684.7441   2466684.7441   2466684.7441   2466689.2753
    940.00   2440609.2417   2440604.7585   2440604.7585   2440604.7585   2440609.2418   2440604.7585   2440604.7585   2440604.7585   2440609.2418
    950.00   2415073.2588   2415068.8226   2415068.8226   2415068.8226   2415073.2588   2415068.8226   2415068.8226   2415068.8226   2415073.2588
    960.00   2390064.5296   2390060.1393   2390060.1393   2390060.1393   2390064.5296   2390060.1393   2390060.1393   2390060.1393   2390064.5296
    970.00   2365566.9393   2365562.5941   2365562.5941   2365562.5941   2365566.9393   2365562.5941   2365562.5941   2365562.5941   2365566.9393
    980.00   2341565.0214   2341560.7204   2341560.7204   2341560.7204   2341565.0214   2341560.7204   2341560.7204   2341560.7204   2341565.0214
    990.00   2318043.9254   2318039.6676   2318039.6676   2318039.6676   2318043.9254   2318039.6676   2318039.6676   2318039.6676   2318043.9254
   1000.00   2294989.3862   2294985.1709   2294985.1709   2294985.1709   2294989.3862   2294985.1709   2294985.1709   2294985.1709   2294989.3862
