# k-axis, Phonon energy [meV], band-1, band-2, band-3, band-4, band-5, band-6, band-7
     1     0.000000    0.000000     0.000000     0.000000    60.052503    60.052503    60.052503 
     2     0.012562    0.665308     0.665308     1.498874    60.046204    60.046204    60.049949 
     3     0.025123    1.329800     1.329800     2.995940    60.027322    60.027322    60.042249 
     4     0.037685    1.992655     1.992655     4.489399    59.996017    59.996017    60.029368 
     5     0.050246    2.653052     2.653052     5.977464    59.952451    59.952451    60.011230 
     6     0.062808    3.310162     3.310162     7.458373    59.896945    59.896945    59.987735 
     7     0.075370    3.963150     3.963150     8.930389    59.829847    59.829847    59.958761 
     8     0.087931    4.611173     4.611173    10.391813    59.751591    59.751591    59.924146 
     9     0.100493    5.253380     5.253380    11.840988    59.662709    59.662709    59.883716 
    10     0.113055    5.888909     5.888909    13.276312    59.563761    59.563761    59.837273 
    11     0.125616    6.516892     6.516892    14.696217    59.455415    59.455415    59.784619 
    12     0.138178    7.136451     7.136451    16.099225    59.338365    59.338365    59.725505 
    13     0.150739    7.746702     7.746702    17.483895    59.213394    59.213394    59.659697 
    14     0.163301    8.346760     8.346760    18.848903    59.081330    59.081330    59.586970 
    15     0.175863    8.935736     8.935736    20.192945    58.943018    58.943018    59.507040 
    16     0.188424    9.512745     9.512745    21.514832    58.799362    58.799362    59.419671 
    17     0.200986   10.076911    10.076911    22.813461    58.651305    58.651305    59.324604 
    18     0.213548   10.627368    10.627368    24.087801    58.499814    58.499814    59.221601 
    19     0.226109   11.163273    11.163273    25.336925    58.345843    58.345843    59.110403 
    20     0.238671   11.683808    11.683808    26.560000    58.190360    58.190360    58.990787 
    21     0.251232   12.188186    12.188186    27.756295    58.034356    58.034356    58.862530 
    22     0.263794   12.675666    12.675666    28.925154    57.878774    57.878774    58.725408 
    23     0.276356   13.145550    13.145550    30.066055    57.724542    57.724542    58.579223 
    24     0.288917   13.597197    13.597197    31.178515    57.572555    57.572555    58.423790 
    25     0.301479   14.030048    14.030048    32.262224    57.423680    57.423680    58.258958 
    26     0.314041   14.443608    14.443608    33.316922    57.278686    57.278686    58.084543 
    27     0.326602   14.837455    14.837455    34.342460    57.138315    57.138315    57.900408 
    28     0.339164   15.211267    15.211267    35.338763    57.003239    57.003239    57.706429 
    29     0.351725   15.564809    15.564809    36.305882    56.874015    56.874015    57.502470 
    30     0.364287   15.897968    15.897968    37.243927    56.751151    56.751151    57.288430 
    31     0.376849   16.210683    16.210683    38.153097    56.635043    56.635043    57.064213 
    32     0.389410   16.503040    16.503040    39.033690    56.526003    56.526003    56.829692 
    33     0.401972   16.775213    16.775213    39.886040    56.424265    56.424265    56.584770 
    34     0.414533   17.027450    17.027450    40.710606    56.329358    56.329941    56.329941 
    35     0.427095   17.260124    17.260124    41.507859    56.063322    56.243093    56.243093 
    36     0.439657   17.473654    17.473654    42.278358    55.786549    56.163659    56.163659 
    37     0.452218   17.668576    17.668576    43.022697    55.498903    56.091528    56.091528 
    38     0.464780   17.845421    17.845421    43.741533    55.200235    56.026525    56.026525 
    39     0.477342   18.004834    18.004834    44.435535    54.890347    55.968403    55.968403 
    40     0.489903   18.147449    18.147449    45.105437    54.569066    55.916902    55.916902 
    41     0.502465   18.273945    18.273945    45.751980    54.236142    55.871674    55.871674 
    42     0.515026   18.384969    18.384969    46.375922    53.891316    55.832409    55.832409 
    43     0.527588   18.481165    18.481165    46.978030    53.534291    55.798774    55.798774 
    44     0.540150   18.563153    18.563153    47.559075    53.164744    55.770407    55.770407 
    45     0.552711   18.631516    18.631516    48.119837    52.782291    55.746999    55.746999 
    46     0.565273   18.686737    18.686737    48.661084    52.386522    55.728279    55.728279 
    47     0.577835   18.729262    18.729262    49.183560    51.976991    55.713971    55.713971 
    48     0.590396   18.759439    18.759439    49.687998    51.553202    55.703892    55.703892 
    49     0.602958   18.777515    18.777515    50.175115    51.114611    55.697879    55.697879 
    50     0.615519   18.783652    18.783677    50.653120    50.653120    55.695833    55.695833 
    51     0.615519   18.783664    18.783701    50.653108    50.653120    55.695833    55.695833 
    52     0.633284   18.770882    18.866942    50.579414    50.633010    55.700817    55.753273 
    53     0.651049   18.733725    19.107252    50.372851    50.574678    55.715298    55.911992 
    54     0.668814   18.673074    19.492557    50.056764    50.480292    55.738953    56.148521 
    55     0.686579   18.590454    20.004384    49.657399    50.353498    55.771213    56.436291 
    56     0.704343   18.487898    20.619486    49.197297    50.199465    55.811345    56.752415 
    57     0.722108   18.367922    21.311666    48.693567    50.024938    55.858433    57.079375 
    58     0.739873   18.233416    22.053128    48.158593    49.838336    55.911484    57.404265 
    59     0.757638   18.087566    22.815581    47.601328    49.649737    55.969395    57.717649 
    60     0.775403   17.933744    23.570966    47.028267    49.470810    56.031075    58.012511 
    61     0.793168   17.775360    24.291935    46.444247    49.314607    56.095433    58.283544 
    62     0.810932   17.615723    24.952413    45.852838    49.195028    56.161465    58.526705 
    63     0.828697   17.457897    25.528337    45.256692    49.126133    56.228277    58.738972 
    64     0.846462   17.304521    25.998544    44.657683    49.120926    56.295140    58.918148 
    65     0.864227   17.157741    26.345961    44.057012    49.190069    56.361482    59.062820 
    66     0.881992   17.019007    26.558760    43.455213    49.340507    56.426993    59.172282 
    67     0.899756   16.889002    26.631090    42.852137    49.574494    56.491561    59.246583 
    68     0.917521   16.767576    26.563261    42.246954    49.889354    56.555324    59.286505 
    69     0.935286   16.653725    26.361000    41.638063    50.277857    56.618628    59.293596 
    70     0.953051   16.545553    26.034325    41.023110    50.729405    56.682081    59.270214 
    71     0.970816   16.440380    25.595931    40.398858    51.231400    56.746439    59.219481 
    72     0.988581   16.334811    25.059780    39.761229    51.770539    56.812657    59.145304 
    73     1.006345   16.224829    24.439929    39.105313    52.333892    56.881776    59.052319 
    74     1.024110   16.105919    23.749782    38.425382    52.909618    56.954949    58.945807 
    75     1.041875   15.973298    23.001551    37.715051    53.487303    57.033317    58.831535 
    76     1.059640   15.821968    22.206107    36.967427    54.058107    57.117995    58.715577 
    77     1.077405   15.646908    21.372900    36.175306    54.614765    57.209988    58.604069 
    78     1.095169   15.443259    20.510024    35.331510    55.151486    57.310189    58.502951 
    79     1.112934   15.206345    19.624286    34.429172    55.663772    57.419242    58.417677 
    80     1.130699   14.931878    18.721327    33.461979    56.148310    57.537581    58.352898 
    81     1.148464   14.615990    17.805760    32.424527    56.602771    57.665317    58.312270 
    82     1.166229   14.255357    16.881290    31.312500    57.025692    57.802266    58.298248 
    83     1.183993   13.847202    15.950808    30.122825    57.416341    57.947892    58.312022 
    84     1.201758   13.389394    15.016520    28.853704    57.774606    58.101343    58.353493 
    85     1.219523   12.880419    14.080037    27.504665    58.100847    58.261388    58.421372 
    86     1.237288   12.319450    13.142475    26.076428    58.395869    58.426530    58.513303 
    87     1.255053   11.706313    12.204559    24.570828    58.594932    58.626026    58.660765 
    88     1.272818   11.041501    11.266686    22.990665    58.755647    58.764536    58.896910 
    89     1.290582   10.326157    10.329012    21.339537    58.897765    58.933100    59.105816 
    90     1.308347    9.391526     9.562046    19.621732    59.047719    59.098191    59.289133 
    91     1.326112    8.454111     8.751531    17.842098    59.200760    59.257344    59.448534 
    92     1.343877    7.516595     7.897537    16.005917    59.352214    59.408055    59.585730 
    93     1.361642    6.578795     7.003509    14.118805    59.497580    59.547854    59.702346 
    94     1.379406    5.640554     6.073364    12.186670    59.632681    59.674401    59.799930 
    95     1.397171    4.701760     5.111447    10.215626    59.753760    59.785536    59.879898 
    96     1.414936    3.762364     4.122473     8.211945    59.857494    59.879302    59.943524 
    97     1.432701    2.822384     3.111469     6.182026    59.941131    59.954038    59.991864 
    98     1.450466    1.881900     2.083717     4.132355    60.002477    60.008403    60.025760 
    99     1.468231    0.941047     1.044693     2.069483    60.039919    60.041431    60.045845 
   100     1.485995    0.000000     0.000000     0.000000    60.052503    60.052503    60.052503 
   101     1.485995    0.000000     0.000000     0.000000    60.052503    60.052503    60.052503 
   102     1.496874    0.619455     0.619455     1.257544    60.048151    60.048151    60.049825 
   103     1.507753    1.237361     1.237361     2.514226    60.035145    60.035145    60.041766 
   104     1.518631    1.852173     1.852173     3.769185    60.013585    60.013585    60.028314 
   105     1.529510    2.462354     2.462354     5.021562    59.983644    59.983644    60.009432 
   106     1.540389    3.066379     3.066379     6.270501    59.945557    59.945557    59.985070 
   107     1.551267    3.662736     3.662736     7.515151    59.899635    59.899635    59.955141 
   108     1.562146    4.249939     4.249939     8.754664    59.846249    59.846249    59.919584 
   109     1.573025    4.826524     4.826524     9.988204    59.785809    59.785809    59.878286 
   110     1.583903    5.391058     5.391058    11.214937    59.718823    59.718823    59.831149 
   111     1.594782    5.942147     5.942147    12.434041    59.645811    59.645811    59.778048 
   112     1.605661    6.478435     6.478435    13.644693    59.567356    59.567356    59.718835 
   113     1.616540    6.998620     6.998620    14.846097    59.484091    59.484091    59.653386 
   114     1.627418    7.501455     7.501455    16.037458    59.396686    59.396686    59.581527 
   115     1.638297    7.985754     7.985754    17.217995    59.305808    59.305808    59.503085 
   116     1.649176    8.450409     8.450409    18.386941    59.212179    59.212179    59.417911 
   117     1.660054    8.894390     8.894390    19.543525    59.116528    59.116528    59.325781 
   118     1.670933    9.316757     9.316757    20.687018    59.019576    59.019576    59.226548 
   119     1.681812    9.716671     9.716671    21.816686    58.922053    58.922053    59.119987 
   120     1.692690   10.093401    10.093401    22.931800    58.824691    58.824691    59.005901 
   121     1.703569   10.446339    10.446339    24.031663    58.728173    58.728173    58.884103 
   122     1.714448   10.774999    10.774999    25.115583    58.633155    58.633155    58.754395 
   123     1.725326   11.079036    11.079036    26.182865    58.540294    58.540294    58.616566 
   124     1.736205   11.358252    11.358252    27.232852    58.450135    58.450135    58.470443 
   125     1.747084   11.612600    11.612600    28.264886    58.315840    58.363238    58.363238 
   126     1.757962   11.842196    11.842196    29.278286    58.152608    58.280047    58.280047 
   127     1.768841   12.047319    12.047319    30.272407    57.980574    58.200985    58.200985 
   128     1.779720   12.228415    12.228415    31.246580    57.799650    58.126386    58.126386 
   129     1.790598   12.386104    12.386104    32.200148    57.609725    58.056499    58.056499 
   130     1.801477   12.521174    12.521174    33.132415    57.410762    57.991509    57.991509 
   131     1.812356   12.634579    12.634579    34.042664    57.202773    57.931539    57.931539 
   132     1.823234   12.727440    12.727440    34.930150    56.985820    57.876641    57.876641 
   133     1.834113   12.801022    12.801022    35.794067    56.760065    57.826776    57.826776 
   134     1.844992   12.856738    12.856738    36.633536    56.525767    57.781858    57.781858 
   135     1.855871   12.896127    12.896127    37.447564    56.283325    57.741739    57.741739 
   136     1.866749   12.920848    12.920848    38.235048    56.033282    57.706218    57.706218 
   137     1.877628   12.932651    12.932651    38.994673    55.776408    57.675062    57.675062 
   138     1.888507   12.933370    12.933370    39.724928    55.513756    57.647985    57.647985 
   139     1.899385   12.924853    12.924853    40.423952    55.246691    57.624689    57.624689 
   140     1.910264   12.908984    12.908984    41.089526    54.977022    57.604865    57.604865 
   141     1.921143   12.887671    12.887671    41.718873    54.707130    57.588164    57.588164 
   142     1.932021   12.862727    12.862727    42.308597    54.440064    57.574279    57.574279 
   143     1.942900   12.835935    12.835935    42.854468    54.179719    57.562885    57.562885 
   144     1.953779   12.808944    12.808944    43.351281    53.931027    57.553686    57.553686 
   145     1.964657   12.783280    12.783280    43.792749    53.700015    57.546408    57.546408 
   146     1.975536   12.760307    12.760307    44.171495    53.493861    57.540792    57.540792 
   147     1.986415   12.741152    12.741152    44.479263    53.320649    57.536651    57.536651 
   148     1.997293   12.726770    12.726770    44.707597    53.188709    57.533812    57.533812 
   149     2.008172   12.717819    12.717819    44.848872    53.105556    57.532150    57.532150 
   150     2.019051   12.714757    12.714757    44.897671    53.076569    57.531592    57.531592 
