# Temperature [K], Thermal Conductivity (xx, xy, xz, yx, yy, yz, zx, zy, zz) [W/mK]
      0.00         0.0000         0.0000         0.0000         0.0000         0.0000         0.0000         0.0000         0.0000         0.0000
     10.00      1242.1054         0.0003         0.0003         0.0003      1242.1054         0.0003         0.0003         0.0003      1242.1054
     20.00       362.3717         0.0001         0.0001         0.0001       362.3717         0.0001         0.0001         0.0001       362.3717
     30.00       149.5571         0.0005         0.0005         0.0005       149.5571         0.0005         0.0005         0.0005       149.5571
     40.00        87.2590         0.0006         0.0006         0.0006        87.2590         0.0006         0.0006         0.0006        87.2590
     50.00        65.8119         0.0002         0.0002         0.0002        65.8119         0.0002         0.0002         0.0002        65.8119
     60.00        56.2076        -0.0003        -0.0003        -0.0003        56.2076        -0.0003        -0.0003        -0.0003        56.2076
     70.00        50.6149        -0.0008        -0.0008        -0.0008        50.6149        -0.0008        -0.0008        -0.0008        50.6149
     80.00        46.6170        -0.0013        -0.0013        -0.0013        46.6170        -0.0013        -0.0013        -0.0013        46.6170
     90.00        43.3815        -0.0017        -0.0017        -0.0017        43.3815        -0.0017        -0.0017        -0.0017        43.3815
    100.00        40.5937        -0.0020        -0.0020        -0.0020        40.5937        -0.0020        -0.0020        -0.0020        40.5937
    110.00        38.1209        -0.0022        -0.0022        -0.0022        38.1209        -0.0022        -0.0022        -0.0022        38.1209
    120.00        35.8978        -0.0023        -0.0023        -0.0023        35.8978        -0.0023        -0.0023        -0.0023        35.8978
    130.00        33.8862        -0.0024        -0.0024        -0.0024        33.8862        -0.0024        -0.0024        -0.0024        33.8862
    140.00        32.0590        -0.0024        -0.0024        -0.0024        32.0590        -0.0024        -0.0024        -0.0024        32.0590
    150.00        30.3949        -0.0024        -0.0024        -0.0024        30.3949        -0.0024        -0.0024        -0.0024        30.3949
    160.00        28.8757        -0.0024        -0.0024        -0.0024        28.8757        -0.0024        -0.0024        -0.0024        28.8757
    170.00        27.4858        -0.0024        -0.0024        -0.0024        27.4858        -0.0024        -0.0024        -0.0024        27.4858
    180.00        26.2111        -0.0024        -0.0024        -0.0024        26.2111        -0.0024        -0.0024        -0.0024        26.2111
    190.00        25.0396        -0.0023        -0.0023        -0.0023        25.0396        -0.0023        -0.0023        -0.0023        25.0396
    200.00        23.9603        -0.0023        -0.0023        -0.0023        23.9603        -0.0023        -0.0023        -0.0023        23.9603
    210.00        22.9638        -0.0022        -0.0022        -0.0022        22.9638        -0.0022        -0.0022        -0.0022        22.9638
    220.00        22.0417        -0.0022        -0.0022        -0.0022        22.0417        -0.0022        -0.0022        -0.0022        22.0417
    230.00        21.1864        -0.0021        -0.0021        -0.0021        21.1864        -0.0021        -0.0021        -0.0021        21.1864
    240.00        20.3915        -0.0021        -0.0021        -0.0021        20.3915        -0.0021        -0.0021        -0.0021        20.3915
    250.00        19.6512        -0.0020        -0.0020        -0.0020        19.6512        -0.0020        -0.0020        -0.0020        19.6512
    260.00        18.9603        -0.0020        -0.0020        -0.0020        18.9603        -0.0020        -0.0020        -0.0020        18.9603
    270.00        18.3142        -0.0019        -0.0019        -0.0019        18.3142        -0.0019        -0.0019        -0.0019        18.3142
    280.00        17.7091        -0.0019        -0.0019        -0.0019        17.7091        -0.0019        -0.0019        -0.0019        17.7091
    290.00        17.1412        -0.0018        -0.0018        -0.0018        17.1412        -0.0018        -0.0018        -0.0018        17.1412
    300.00        16.6073        -0.0018        -0.0018        -0.0018        16.6073        -0.0018        -0.0018        -0.0018        16.6073
    310.00        16.1046        -0.0017        -0.0017        -0.0017        16.1046        -0.0017        -0.0017        -0.0017        16.1046
    320.00        15.6306        -0.0017        -0.0017        -0.0017        15.6306        -0.0017        -0.0017        -0.0017        15.6306
    330.00        15.1829        -0.0016        -0.0016        -0.0016        15.1829        -0.0016        -0.0016        -0.0016        15.1829
    340.00        14.7594        -0.0016        -0.0016        -0.0016        14.7594        -0.0016        -0.0016        -0.0016        14.7594
    350.00        14.3583        -0.0016        -0.0016        -0.0016        14.3583        -0.0016        -0.0016        -0.0016        14.3583
    360.00        13.9779        -0.0015        -0.0015        -0.0015        13.9779        -0.0015        -0.0015        -0.0015        13.9779
    370.00        13.6168        -0.0015        -0.0015        -0.0015        13.6168        -0.0015        -0.0015        -0.0015        13.6168
    380.00        13.2734        -0.0015        -0.0015        -0.0015        13.2734        -0.0015        -0.0015        -0.0015        13.2734
    390.00        12.9465        -0.0014        -0.0014        -0.0014        12.9465        -0.0014        -0.0014        -0.0014        12.9465
    400.00        12.6351        -0.0014        -0.0014        -0.0014        12.6351        -0.0014        -0.0014        -0.0014        12.6351
    410.00        12.3380        -0.0014        -0.0014        -0.0014        12.3380        -0.0014        -0.0014        -0.0014        12.3380
    420.00        12.0543        -0.0013        -0.0013        -0.0013        12.0543        -0.0013        -0.0013        -0.0013        12.0543
    430.00        11.7832        -0.0013        -0.0013        -0.0013        11.7832        -0.0013        -0.0013        -0.0013        11.7832
    440.00        11.5238        -0.0013        -0.0013        -0.0013        11.5238        -0.0013        -0.0013        -0.0013        11.5238
    450.00        11.2754        -0.0013        -0.0013        -0.0013        11.2754        -0.0013        -0.0013        -0.0013        11.2754
    460.00        11.0373        -0.0012        -0.0012        -0.0012        11.0373        -0.0012        -0.0012        -0.0012        11.0373
    470.00        10.8089        -0.0012        -0.0012        -0.0012        10.8089        -0.0012        -0.0012        -0.0012        10.8089
    480.00        10.5897        -0.0012        -0.0012        -0.0012        10.5897        -0.0012        -0.0012        -0.0012        10.5897
    490.00        10.3791        -0.0012        -0.0012        -0.0012        10.3791        -0.0012        -0.0012        -0.0012        10.3791
    500.00        10.1766        -0.0012        -0.0012        -0.0012        10.1766        -0.0012        -0.0012        -0.0012        10.1766
    510.00         9.9817        -0.0011        -0.0011        -0.0011         9.9817        -0.0011        -0.0011        -0.0011         9.9817
    520.00         9.7941        -0.0011        -0.0011        -0.0011         9.7941        -0.0011        -0.0011        -0.0011         9.7941
    530.00         9.6133        -0.0011        -0.0011        -0.0011         9.6133        -0.0011        -0.0011        -0.0011         9.6133
    540.00         9.4390        -0.0011        -0.0011        -0.0011         9.4390        -0.0011        -0.0011        -0.0011         9.4390
    550.00         9.2709        -0.0011        -0.0011        -0.0011         9.2709        -0.0011        -0.0011        -0.0011         9.2709
    560.00         9.1086        -0.0010        -0.0010        -0.0010         9.1086        -0.0010        -0.0010        -0.0010         9.1086
    570.00         8.9518        -0.0010        -0.0010        -0.0010         8.9518        -0.0010        -0.0010        -0.0010         8.9518
    580.00         8.8002        -0.0010        -0.0010        -0.0010         8.8002        -0.0010        -0.0010        -0.0010         8.8002
    590.00         8.6537        -0.0010        -0.0010        -0.0010         8.6537        -0.0010        -0.0010        -0.0010         8.6537
    600.00         8.5119        -0.0010        -0.0010        -0.0010         8.5119        -0.0010        -0.0010        -0.0010         8.5119
    610.00         8.3747        -0.0010        -0.0010        -0.0010         8.3747        -0.0010        -0.0010        -0.0010         8.3747
    620.00         8.2418        -0.0009        -0.0009        -0.0009         8.2418        -0.0009        -0.0009        -0.0009         8.2418
    630.00         8.1130        -0.0009        -0.0009        -0.0009         8.1130        -0.0009        -0.0009        -0.0009         8.1130
    640.00         7.9881        -0.0009        -0.0009        -0.0009         7.9881        -0.0009        -0.0009        -0.0009         7.9881
    650.00         7.8670        -0.0009        -0.0009        -0.0009         7.8670        -0.0009        -0.0009        -0.0009         7.8670
    660.00         7.7495        -0.0009        -0.0009        -0.0009         7.7495        -0.0009        -0.0009        -0.0009         7.7495
    670.00         7.6354        -0.0009        -0.0009        -0.0009         7.6354        -0.0009        -0.0009        -0.0009         7.6354
    680.00         7.5246        -0.0009        -0.0009        -0.0009         7.5246        -0.0009        -0.0009        -0.0009         7.5246
    690.00         7.4170        -0.0009        -0.0009        -0.0009         7.4170        -0.0009        -0.0009        -0.0009         7.4170
    700.00         7.3123        -0.0008        -0.0008        -0.0008         7.3123        -0.0008        -0.0008        -0.0008         7.3123
    710.00         7.2106        -0.0008        -0.0008        -0.0008         7.2106        -0.0008        -0.0008        -0.0008         7.2106
    720.00         7.1116        -0.0008        -0.0008        -0.0008         7.1116        -0.0008        -0.0008        -0.0008         7.1116
    730.00         7.0153        -0.0008        -0.0008        -0.0008         7.0153        -0.0008        -0.0008        -0.0008         7.0153
    740.00         6.9216        -0.0008        -0.0008        -0.0008         6.9216        -0.0008        -0.0008        -0.0008         6.9216
    750.00         6.8303        -0.0008        -0.0008        -0.0008         6.8303        -0.0008        -0.0008        -0.0008         6.8303
    760.00         6.7414        -0.0008        -0.0008        -0.0008         6.7414        -0.0008        -0.0008        -0.0008         6.7414
    770.00         6.6548        -0.0008        -0.0008        -0.0008         6.6548        -0.0008        -0.0008        -0.0008         6.6548
    780.00         6.5703        -0.0008        -0.0008        -0.0008         6.5703        -0.0008        -0.0008        -0.0008         6.5703
    790.00         6.4880        -0.0007        -0.0007        -0.0007         6.4880        -0.0007        -0.0007        -0.0007         6.4880
    800.00         6.4077        -0.0007        -0.0007        -0.0007         6.4077        -0.0007        -0.0007        -0.0007         6.4077
    810.00         6.3293        -0.0007        -0.0007        -0.0007         6.3293        -0.0007        -0.0007        -0.0007         6.3293
    820.00         6.2528        -0.0007        -0.0007        -0.0007         6.2528        -0.0007        -0.0007        -0.0007         6.2528
    830.00         6.1781        -0.0007        -0.0007        -0.0007         6.1781        -0.0007        -0.0007        -0.0007         6.1781
    840.00         6.1052        -0.0007        -0.0007        -0.0007         6.1052        -0.0007        -0.0007        -0.0007         6.1052
    850.00         6.0340        -0.0007        -0.0007        -0.0007         6.0340        -0.0007        -0.0007        -0.0007         6.0340
    860.00         5.9644        -0.0007        -0.0007        -0.0007         5.9644        -0.0007        -0.0007        -0.0007         5.9644
    870.00         5.8964        -0.0007        -0.0007        -0.0007         5.8964        -0.0007        -0.0007        -0.0007         5.8964
    880.00         5.8300        -0.0007        -0.0007        -0.0007         5.8300        -0.0007        -0.0007        -0.0007         5.8300
    890.00         5.7650        -0.0007        -0.0007        -0.0007         5.7650        -0.0007        -0.0007        -0.0007         5.7650
    900.00         5.7014        -0.0007        -0.0007        -0.0007         5.7014        -0.0007        -0.0007        -0.0007         5.7014
    910.00         5.6392        -0.0007        -0.0007        -0.0007         5.6392        -0.0007        -0.0007        -0.0007         5.6392
    920.00         5.5784        -0.0006        -0.0006        -0.0006         5.5784        -0.0006        -0.0006        -0.0006         5.5784
    930.00         5.5188        -0.0006        -0.0006        -0.0006         5.5188        -0.0006        -0.0006        -0.0006         5.5188
    940.00         5.4605        -0.0006        -0.0006        -0.0006         5.4605        -0.0006        -0.0006        -0.0006         5.4605
    950.00         5.4034        -0.0006        -0.0006        -0.0006         5.4034        -0.0006        -0.0006        -0.0006         5.4034
    960.00         5.3475        -0.0006        -0.0006        -0.0006         5.3475        -0.0006        -0.0006        -0.0006         5.3475
    970.00         5.2928        -0.0006        -0.0006        -0.0006         5.2928        -0.0006        -0.0006        -0.0006         5.2928
    980.00         5.2391        -0.0006        -0.0006        -0.0006         5.2391        -0.0006        -0.0006        -0.0006         5.2391
    990.00         5.1865        -0.0006        -0.0006        -0.0006         5.1865        -0.0006        -0.0006        -0.0006         5.1865
   1000.00         5.1350        -0.0006        -0.0006        -0.0006         5.1350        -0.0006        -0.0006        -0.0006         5.1350
