# Temperature [K], Thermal Conductivity (xx, xy, xz, yx, yy, yz, zx, zy, zz) [W/mK]
      0.00         0.0000         0.0000         0.0000         0.0000         0.0000         0.0000         0.0000         0.0000         0.0000
     10.00      3797.8938         0.0000         0.0000         0.0000      3797.8938         0.0000         0.0000         0.0000      3797.8938
     20.00       626.4881        -0.0005        -0.0005        -0.0005       626.4881        -0.0005        -0.0005        -0.0005       626.4881
     30.00       214.0231        -0.0015        -0.0015        -0.0015       214.0231        -0.0015        -0.0015        -0.0015       214.0231
     40.00       131.0549        -0.0028        -0.0028        -0.0028       131.0549        -0.0028        -0.0028        -0.0028       131.0549
     50.00       104.8505        -0.0037        -0.0037        -0.0037       104.8505        -0.0037        -0.0037        -0.0037       104.8505
     60.00        92.1896        -0.0043        -0.0043        -0.0043        92.1896        -0.0043        -0.0043        -0.0043        92.1896
     70.00        83.7601        -0.0046        -0.0046        -0.0046        83.7601        -0.0046        -0.0046        -0.0046        83.7601
     80.00        77.0872        -0.0047        -0.0047        -0.0047        77.0872        -0.0047        -0.0047        -0.0047        77.0872
     90.00        71.4019        -0.0047        -0.0047        -0.0047        71.4019        -0.0047        -0.0047        -0.0047        71.4019
    100.00        66.4178        -0.0046        -0.0046        -0.0046        66.4178        -0.0046        -0.0046        -0.0046        66.4178
    110.00        61.9977        -0.0044        -0.0044        -0.0044        61.9977        -0.0044        -0.0044        -0.0044        61.9977
    120.00        58.0559        -0.0042        -0.0042        -0.0042        58.0559        -0.0042        -0.0042        -0.0042        58.0559
    130.00        54.5275        -0.0041        -0.0041        -0.0041        54.5275        -0.0041        -0.0041        -0.0041        54.5275
    140.00        51.3587        -0.0039        -0.0039        -0.0039        51.3587        -0.0039        -0.0039        -0.0039        51.3587
    150.00        48.5039        -0.0037        -0.0037        -0.0037        48.5039        -0.0037        -0.0037        -0.0037        48.5039
    160.00        45.9235        -0.0036        -0.0036        -0.0036        45.9235        -0.0036        -0.0036        -0.0036        45.9235
    170.00        43.5837        -0.0034        -0.0034        -0.0034        43.5837        -0.0034        -0.0034        -0.0034        43.5837
    180.00        41.4551        -0.0033        -0.0033        -0.0033        41.4551        -0.0033        -0.0033        -0.0033        41.4551
    190.00        39.5124        -0.0031        -0.0031        -0.0031        39.5124        -0.0031        -0.0031        -0.0031        39.5124
    200.00        37.7339        -0.0030        -0.0030        -0.0030        37.7339        -0.0030        -0.0030        -0.0030        37.7339
    210.00        36.1009        -0.0029        -0.0029        -0.0029        36.1009        -0.0029        -0.0029        -0.0029        36.1009
    220.00        34.5972        -0.0028        -0.0028        -0.0028        34.5972        -0.0028        -0.0028        -0.0028        34.5972
    230.00        33.2087        -0.0027        -0.0027        -0.0027        33.2087        -0.0027        -0.0027        -0.0027        33.2087
    240.00        31.9232        -0.0026        -0.0026        -0.0026        31.9232        -0.0026        -0.0026        -0.0026        31.9232
    250.00        30.7301        -0.0025        -0.0025        -0.0025        30.7301        -0.0025        -0.0025        -0.0025        30.7301
    260.00        29.6202        -0.0024        -0.0024        -0.0024        29.6202        -0.0024        -0.0024        -0.0024        29.6202
    270.00        28.5854        -0.0023        -0.0023        -0.0023        28.5854        -0.0023        -0.0023        -0.0023        28.5854
    280.00        27.6185        -0.0023        -0.0023        -0.0023        27.6185        -0.0023        -0.0023        -0.0023        27.6185
    290.00        26.7132        -0.0022        -0.0022        -0.0022        26.7132        -0.0022        -0.0022        -0.0022        26.7132
    300.00        25.8639        -0.0021        -0.0021        -0.0021        25.8639        -0.0021        -0.0021        -0.0021        25.8639
    310.00        25.0658        -0.0021        -0.0021        -0.0021        25.0658        -0.0021        -0.0021        -0.0021        25.0658
    320.00        24.3145        -0.0020        -0.0020        -0.0020        24.3145        -0.0020        -0.0020        -0.0020        24.3145
    330.00        23.6060        -0.0019        -0.0019        -0.0019        23.6060        -0.0019        -0.0019        -0.0019        23.6060
    340.00        22.9369        -0.0019        -0.0019        -0.0019        22.9369        -0.0019        -0.0019        -0.0019        22.9369
    350.00        22.3041        -0.0018        -0.0018        -0.0018        22.3041        -0.0018        -0.0018        -0.0018        22.3041
    360.00        21.7046        -0.0018        -0.0018        -0.0018        21.7046        -0.0018        -0.0018        -0.0018        21.7046
    370.00        21.1360        -0.0017        -0.0017        -0.0017        21.1360        -0.0017        -0.0017        -0.0017        21.1360
    380.00        20.5960        -0.0017        -0.0017        -0.0017        20.5960        -0.0017        -0.0017        -0.0017        20.5960
    390.00        20.0826        -0.0017        -0.0017        -0.0017        20.0826        -0.0017        -0.0017        -0.0017        20.0826
    400.00        19.5937        -0.0016        -0.0016        -0.0016        19.5937        -0.0016        -0.0016        -0.0016        19.5937
    410.00        19.1279        -0.0016        -0.0016        -0.0016        19.1279        -0.0016        -0.0016        -0.0016        19.1279
    420.00        18.6833        -0.0015        -0.0015        -0.0015        18.6833        -0.0015        -0.0015        -0.0015        18.6833
    430.00        18.2588        -0.0015        -0.0015        -0.0015        18.2588        -0.0015        -0.0015        -0.0015        18.2588
    440.00        17.8529        -0.0015        -0.0015        -0.0015        17.8529        -0.0015        -0.0015        -0.0015        17.8529
    450.00        17.4645        -0.0015        -0.0015        -0.0015        17.4645        -0.0015        -0.0015        -0.0015        17.4645
    460.00        17.0924        -0.0014        -0.0014        -0.0014        17.0924        -0.0014        -0.0014        -0.0014        17.0924
    470.00        16.7357        -0.0014        -0.0014        -0.0014        16.7357        -0.0014        -0.0014        -0.0014        16.7357
    480.00        16.3935        -0.0014        -0.0014        -0.0014        16.3935        -0.0014        -0.0014        -0.0014        16.3935
    490.00        16.0648        -0.0013        -0.0013        -0.0013        16.0648        -0.0013        -0.0013        -0.0013        16.0648
    500.00        15.7490        -0.0013        -0.0013        -0.0013        15.7490        -0.0013        -0.0013        -0.0013        15.7490
    510.00        15.4452        -0.0013        -0.0013        -0.0013        15.4452        -0.0013        -0.0013        -0.0013        15.4452
    520.00        15.1528        -0.0013        -0.0013        -0.0013        15.1528        -0.0013        -0.0013        -0.0013        15.1528
    530.00        14.8713        -0.0012        -0.0012        -0.0012        14.8713        -0.0012        -0.0012        -0.0012        14.8713
    540.00        14.5999        -0.0012        -0.0012        -0.0012        14.5999        -0.0012        -0.0012        -0.0012        14.5999
    550.00        14.3382        -0.0012        -0.0012        -0.0012        14.3382        -0.0012        -0.0012        -0.0012        14.3382
    560.00        14.0856        -0.0012        -0.0012        -0.0012        14.0856        -0.0012        -0.0012        -0.0012        14.0856
    570.00        13.8417        -0.0012        -0.0012        -0.0012        13.8417        -0.0012        -0.0012        -0.0012        13.8417
    580.00        13.6061        -0.0011        -0.0011        -0.0011        13.6061        -0.0011        -0.0011        -0.0011        13.6061
    590.00        13.3783        -0.0011        -0.0011        -0.0011        13.3783        -0.0011        -0.0011        -0.0011        13.3783
    600.00        13.1579        -0.0011        -0.0011        -0.0011        13.1579        -0.0011        -0.0011        -0.0011        13.1579
    610.00        12.9447        -0.0011        -0.0011        -0.0011        12.9447        -0.0011        -0.0011        -0.0011        12.9447
    620.00        12.7382        -0.0011        -0.0011        -0.0011        12.7382        -0.0011        -0.0011        -0.0011        12.7382
    630.00        12.5382        -0.0010        -0.0010        -0.0010        12.5382        -0.0010        -0.0010        -0.0010        12.5382
    640.00        12.3443        -0.0010        -0.0010        -0.0010        12.3443        -0.0010        -0.0010        -0.0010        12.3443
    650.00        12.1563        -0.0010        -0.0010        -0.0010        12.1563        -0.0010        -0.0010        -0.0010        12.1563
    660.00        11.9740        -0.0010        -0.0010        -0.0010        11.9740        -0.0010        -0.0010        -0.0010        11.9740
    670.00        11.7969        -0.0010        -0.0010        -0.0010        11.7969        -0.0010        -0.0010        -0.0010        11.7969
    680.00        11.6250        -0.0010        -0.0010        -0.0010        11.6250        -0.0010        -0.0010        -0.0010        11.6250
    690.00        11.4581        -0.0010        -0.0010        -0.0010        11.4581        -0.0010        -0.0010        -0.0010        11.4581
    700.00        11.2958        -0.0009        -0.0009        -0.0009        11.2958        -0.0009        -0.0009        -0.0009        11.2958
    710.00        11.1381        -0.0009        -0.0009        -0.0009        11.1381        -0.0009        -0.0009        -0.0009        11.1381
    720.00        10.9846        -0.0009        -0.0009        -0.0009        10.9846        -0.0009        -0.0009        -0.0009        10.9846
    730.00        10.8354        -0.0009        -0.0009        -0.0009        10.8354        -0.0009        -0.0009        -0.0009        10.8354
    740.00        10.6901        -0.0009        -0.0009        -0.0009        10.6901        -0.0009        -0.0009        -0.0009        10.6901
    750.00        10.5486        -0.0009        -0.0009        -0.0009        10.5486        -0.0009        -0.0009        -0.0009        10.5486
    760.00        10.4109        -0.0009        -0.0009        -0.0009        10.4109        -0.0009        -0.0009        -0.0009        10.4109
    770.00        10.2766        -0.0009        -0.0009        -0.0009        10.2766        -0.0009        -0.0009        -0.0009        10.2766
    780.00        10.1458        -0.0008        -0.0008        -0.0008        10.1458        -0.0008        -0.0008        -0.0008        10.1458
    790.00        10.0182        -0.0008        -0.0008        -0.0008        10.0182        -0.0008        -0.0008        -0.0008        10.0182
    800.00         9.8938        -0.0008        -0.0008        -0.0008         9.8938        -0.0008        -0.0008        -0.0008         9.8938
    810.00         9.7725        -0.0008        -0.0008        -0.0008         9.7725        -0.0008        -0.0008        -0.0008         9.7725
    820.00         9.6541        -0.0008        -0.0008        -0.0008         9.6541        -0.0008        -0.0008        -0.0008         9.6541
    830.00         9.5385        -0.0008        -0.0008        -0.0008         9.5385        -0.0008        -0.0008        -0.0008         9.5385
    840.00         9.4256        -0.0008        -0.0008        -0.0008         9.4256        -0.0008        -0.0008        -0.0008         9.4256
    850.00         9.3154        -0.0008        -0.0008        -0.0008         9.3154        -0.0008        -0.0008        -0.0008         9.3154
    860.00         9.2077        -0.0008        -0.0008        -0.0008         9.2077        -0.0008        -0.0008        -0.0008         9.2077
    870.00         9.1024        -0.0008        -0.0008        -0.0008         9.1024        -0.0008        -0.0008        -0.0008         9.1024
    880.00         8.9996        -0.0008        -0.0008        -0.0008         8.9996        -0.0008        -0.0008        -0.0008         8.9996
    890.00         8.8990        -0.0007        -0.0007        -0.0007         8.8990        -0.0007        -0.0007        -0.0007         8.8990
    900.00         8.8006        -0.0007        -0.0007        -0.0007         8.8006        -0.0007        -0.0007        -0.0007         8.8006
    910.00         8.7044        -0.0007        -0.0007        -0.0007         8.7044        -0.0007        -0.0007        -0.0007         8.7044
    920.00         8.6103        -0.0007        -0.0007        -0.0007         8.6103        -0.0007        -0.0007        -0.0007         8.6103
    930.00         8.5182        -0.0007        -0.0007        -0.0007         8.5182        -0.0007        -0.0007        -0.0007         8.5182
    940.00         8.4280        -0.0007        -0.0007        -0.0007         8.4280        -0.0007        -0.0007        -0.0007         8.4280
    950.00         8.3397        -0.0007        -0.0007        -0.0007         8.3397        -0.0007        -0.0007        -0.0007         8.3397
    960.00         8.2532        -0.0007        -0.0007        -0.0007         8.2532        -0.0007        -0.0007        -0.0007         8.2532
    970.00         8.1685        -0.0007        -0.0007        -0.0007         8.1685        -0.0007        -0.0007        -0.0007         8.1685
    980.00         8.0855        -0.0007        -0.0007        -0.0007         8.0855        -0.0007        -0.0007        -0.0007         8.0855
    990.00         8.0042        -0.0007        -0.0007        -0.0007         8.0042        -0.0007        -0.0007        -0.0007         8.0042
   1000.00         7.9245        -0.0007        -0.0007        -0.0007         7.9245        -0.0007        -0.0007        -0.0007         7.9245
