# Temperature [K], Thermal Conductivity (xx, xy, xz, yx, yy, yz, zx, zy, zz) [W/mK]
      0.00         0.0000         0.0000         0.0000         0.0000         0.0000         0.0000         0.0000         0.0000         0.0000
     10.00      2575.2189      2548.1314      2548.1314      2548.1314      2575.2189      2548.1314      2548.1314      2548.1314      2575.2189
     20.00    426509.8918    426492.0573    426492.0573    426492.0573    426509.8918    426492.0573    426492.0573    426492.0573    426509.8918
     30.00   1468588.0935   1468573.1134   1468573.1134   1468573.1134   1468588.0934   1468573.1134   1468573.1134   1468573.1134   1468588.0934
     40.00   2194020.1172   2194005.6619   2194005.6619   2194005.6619   2194020.1172   2194005.6618   2194005.6619   2194005.6618   2194020.1172
     50.00   2490726.4599   2490712.7998   2490712.7998   2490712.7998   2490726.4599   2490712.7998   2490712.7998   2490712.7998   2490726.4599
     60.00   2536185.8537   2536173.1883   2536173.1883   2536173.1883   2536185.8537   2536173.1883   2536173.1883   2536173.1883   2536185.8537
     70.00   2462891.9207   2462880.2709   2462880.2710   2462880.2709   2462891.9207   2462880.2709   2462880.2710   2462880.2709   2462891.9207
     80.00   2340959.7989   2340949.0988   2340949.0988   2340949.0988   2340959.7989   2340949.0988   2340949.0988   2340949.0988   2340959.7989
     90.00   2204168.0862   2204158.2406   2204158.2406   2204158.2406   2204168.0862   2204158.2406   2204158.2406   2204158.2406   2204168.0862
    100.00   2068043.7860   2068034.6972   2068034.6972   2068034.6972   2068043.7860   2068034.6971   2068034.6972   2068034.6971   2068043.7860
    110.00   1939287.6871   1939279.2648   1939279.2648   1939279.2648   1939287.6871   1939279.2648   1939279.2648   1939279.2648   1939287.6871
    120.00   1820383.3454   1820375.5100   1820375.5100   1820375.5100   1820383.3454   1820375.5100   1820375.5100   1820375.5100   1820383.3454
    130.00   1711828.4811   1711821.1638   1711821.1638   1711821.1638   1711828.4811   1711821.1638   1711821.1638   1711821.1638   1711828.4811
    140.00   1613219.8730   1613213.0147   1613213.0147   1613213.0147   1613219.8729   1613213.0147   1613213.0147   1613213.0147   1613219.8729
    150.00   1523782.7392   1523776.2896   1523776.2896   1523776.2896   1523782.7392   1523776.2896   1523776.2896   1523776.2896   1523782.7392
    160.00   1442627.5490   1442621.4647   1442621.4647   1442621.4647   1442627.5490   1442621.4647   1442621.4647   1442621.4647   1442627.5490
    170.00   1368871.4765   1368865.7203   1368865.7203   1368865.7203   1368871.4765   1368865.7203   1368865.7203   1368865.7203   1368871.4765
    180.00   1301692.1831   1301686.7228   1301686.7229   1301686.7228   1301692.1831   1301686.7228   1301686.7229   1301686.7228   1301692.1831
    190.00   1240347.8616   1240342.6696   1240342.6696   1240342.6696   1240347.8616   1240342.6696   1240342.6696   1240342.6696   1240347.8616
    200.00   1184180.7744   1184175.8263   1184175.8263   1184175.8263   1184180.7744   1184175.8263   1184175.8263   1184175.8263   1184180.7744
    210.00   1132613.0925   1132608.3670   1132608.3670   1132608.3670   1132613.0924   1132608.3670   1132608.3670   1132608.3670   1132613.0924
    220.00   1085139.5358   1085135.0144   1085135.0144   1085135.0144   1085139.5358   1085135.0144   1085135.0144   1085135.0144   1085139.5358
    230.00   1041319.0752   1041314.7414   1041314.7414   1041314.7414   1041319.0752   1041314.7414   1041314.7414   1041314.7414   1041319.0752
    240.00   1000766.7950   1000762.6342   1000762.6342   1000762.6342   1000766.7950   1000762.6342   1000762.6342   1000762.6342   1000766.7950
    250.00    963146.4066    963142.4058    963142.4058    963142.4058    963146.4066    963142.4058    963142.4058    963142.4058    963146.4066
    260.00    928163.5924    928159.7399    928159.7399    928159.7399    928163.5924    928159.7399    928159.7399    928159.7399    928163.5924
    270.00    895560.2000    895556.4855    895556.4855    895556.4855    895560.2000    895556.4855    895556.4855    895556.4855    895560.2000
    280.00    865109.2365    865105.6506    865105.6506    865105.6506    865109.2365    865105.6505    865105.6506    865105.6505    865109.2365
    290.00    836610.5797    836607.1138    836607.1138    836607.1138    836610.5796    836607.1138    836607.1138    836607.1138    836610.5797
    300.00    809887.3154    809883.9620    809883.9620    809883.9620    809887.3154    809883.9620    809883.9620    809883.9620    809887.3154
    310.00    784782.6158    784779.3677    784779.3677    784779.3677    784782.6157    784779.3677    784779.3677    784779.3677    784782.6158
    320.00    761157.0763    761153.9274    761153.9274    761153.9274    761157.0763    761153.9274    761153.9274    761153.9274    761157.0763
    330.00    738886.4450    738883.3894    738883.3894    738883.3894    738886.4450    738883.3894    738883.3894    738883.3894    738886.4450
    340.00    717859.6807    717856.7130    717856.7130    717856.7130    717859.6807    717856.7130    717856.7130    717856.7130    717859.6807
    350.00    697977.2915    697974.4070    697974.4070    697974.4070    697977.2915    697974.4070    697974.4070    697974.4070    697977.2915
    360.00    679149.9092    679147.1033    679147.1033    679147.1033    679149.9092    679147.1032    679147.1033    679147.1032    679149.9092
    370.00    661297.0627    661294.3312    661294.3312    661294.3312    661297.0627    661294.3312    661294.3312    661294.3312    661297.0627
    380.00    644346.1213    644343.4605    644343.4605    644343.4605    644346.1213    644343.4605    644343.4605    644343.4605    644346.1213
    390.00    628231.3809    628228.7873    628228.7873    628228.7873    628231.3809    628228.7873    628228.7873    628228.7873    628231.3809
    400.00    612893.2724    612890.7426    612890.7426    612890.7426    612893.2724    612890.7426    612890.7426    612890.7426    612893.2724
    410.00    598277.6737    598275.2047    598275.2047    598275.2047    598277.6737    598275.2047    598275.2047    598275.2047    598277.6737
    420.00    584335.3109    584332.8999    584332.8999    584332.8999    584335.3109    584332.8999    584332.8999    584332.8999    584335.3109
    430.00    571021.2351    571018.8795    571018.8795    571018.8795    571021.2351    571018.8795    571018.8795    571018.8795    571021.2351
    440.00    558294.3646    558292.0618    558292.0618    558292.0618    558294.3646    558292.0618    558292.0618    558292.0618    558294.3646
    450.00    546117.0827    546114.8305    546114.8305    546114.8305    546117.0827    546114.8305    546114.8305    546114.8305    546117.0827
    460.00    534454.8849    534452.6811    534452.6811    534452.6811    534454.8849    534452.6811    534452.6811    534452.6811    534454.8849
    470.00    523276.0666    523273.9091    523273.9091    523273.9091    523276.0666    523273.9091    523273.9091    523273.9091    523276.0666
    480.00    512551.4481    512549.3352    512549.3352    512549.3352    512551.4481    512549.3352    512549.3352    512549.3352    512551.4481
    490.00    502254.1309    502252.0606    502252.0606    502252.0606    502254.1309    502252.0606    502252.0606    502252.0606    502254.1309
    500.00    492359.2807    492357.2514    492357.2514    492357.2514    492359.2807    492357.2514    492357.2514    492357.2514    492359.2807
    510.00    482843.9353    482841.9454    482841.9454    482841.9454    482843.9353    482841.9454    482841.9454    482841.9454    482843.9353
    520.00    473686.8329    473684.8809    473684.8809    473684.8809    473686.8329    473684.8809    473684.8809    473684.8809    473686.8329
    530.00    464868.2587    464866.3433    464866.3433    464866.3433    464868.2587    464866.3433    464866.3433    464866.3433    464868.2587
    540.00    456369.9082    456368.0279    456368.0279    456368.0279    456369.9082    456368.0279    456368.0279    456368.0279    456369.9082
    550.00    448174.7637    448172.9174    448172.9174    448172.9174    448174.7637    448172.9174    448172.9174    448172.9174    448174.7637
    560.00    440266.9847    440265.1711    440265.1711    440265.1711    440266.9847    440265.1711    440265.1711    440265.1711    440266.9847
    570.00    432631.8079    432630.0259    432630.0259    432630.0259    432631.8079    432630.0259    432630.0259    432630.0259    432631.8079
    580.00    425255.4582    425253.7066    425253.7066    425253.7066    425255.4582    425253.7066    425253.7066    425253.7066    425255.4582
    590.00    418125.0675    418123.3454    418123.3454    418123.3454    418125.0675    418123.3454    418123.3454    418123.3454    418125.0675
    600.00    411228.6021    411226.9086    411226.9086    411226.9086    411228.6021    411226.9086    411226.9086    411226.9086    411228.6021
    610.00    404554.7966    404553.1306    404553.1306    404553.1306    404554.7966    404553.1306    404553.1306    404553.1306    404554.7966
    620.00    398093.0933    398091.4540    398091.4540    398091.4540    398093.0933    398091.4540    398091.4540    398091.4540    398093.0933
    630.00    391833.5884    391831.9750    391831.9750    391831.9750    391833.5884    391831.9750    391831.9750    391831.9750    391833.5884
    640.00    385766.9822    385765.3939    385765.3939    385765.3939    385766.9822    385765.3939    385765.3939    385765.3939    385766.9822
    650.00    379884.5340    379882.9699    379882.9699    379882.9699    379884.5340    379882.9699    379882.9699    379882.9699    379884.5340
    660.00    374178.0207    374176.4802    374176.4802    374176.4802    374178.0207    374176.4802    374176.4802    374176.4802    374178.0207
    670.00    368639.6996    368638.1820    368638.1820    368638.1820    368639.6996    368638.1820    368638.1820    368638.1820    368639.6996
    680.00    363262.2736    363260.7782    363260.7782    363260.7782    363262.2736    363260.7782    363260.7782    363260.7782    363262.2736
    690.00    358038.8602    358037.3864    358037.3864    358037.3864    358038.8602    358037.3864    358037.3864    358037.3864    358038.8602
    700.00    352962.9621    352961.5092    352961.5092    352961.5092    352962.9621    352961.5092    352961.5092    352961.5092    352962.9621
    710.00    348028.4411    348027.0086    348027.0086    348027.0086    348028.4411    348027.0086    348027.0086    348027.0086    348028.4411
    720.00    343229.4935    343228.0807    343228.0807    343228.0807    343229.4935    343228.0807    343228.0807    343228.0807    343229.4935
    730.00    338560.6277    338559.2343    338559.2343    338559.2343    338560.6277    338559.2343    338559.2343    338559.2343    338560.6277
    740.00    334016.6440    334015.2693    334015.2693    334015.2693    334016.6440    334015.2693    334015.2693    334015.2693    334016.6440
    750.00    329592.6149    329591.2585    329591.2585    329591.2585    329592.6149    329591.2585    329591.2585    329591.2585    329592.6149
    760.00    325283.8681    325282.5294    325282.5294    325282.5294    325283.8681    325282.5294    325282.5294    325282.5294    325283.8681
    770.00    321085.9698    321084.6484    321084.6484    321084.6484    321085.9698    321084.6484    321084.6484    321084.6484    321085.9698
    780.00    316994.7102    316993.4057    316993.4057    316993.4057    316994.7102    316993.4057    316993.4057    316993.4057    316994.7102
    790.00    313006.0892    313004.8011    313004.8011    313004.8011    313006.0892    313004.8011    313004.8011    313004.8011    313006.0892
    800.00    309116.3037    309115.0317    309115.0317    309115.0317    309116.3037    309115.0317    309115.0317    309115.0317    309116.3037
    810.00    305321.7357    305320.4793    305320.4793    305320.4793    305321.7357    305320.4793    305320.4793    305320.4793    305321.7357
    820.00    301618.9411    301617.7000    301617.7000    301617.7000    301618.9411    301617.7000    301617.7000    301617.7000    301618.9411
    830.00    298004.6395    298003.4132    298003.4132    298003.4132    298004.6395    298003.4132    298003.4132    298003.4132    298004.6395
    840.00    294475.7044    294474.4927    294474.4927    294474.4927    294475.7044    294474.4927    294474.4927    294474.4927    294475.7044
    850.00    291029.1547    291027.9572    291027.9572    291027.9572    291029.1547    291027.9572    291027.9572    291027.9572    291029.1547
    860.00    287662.1460    287660.9625    287660.9625    287660.9625    287662.1460    287660.9625    287660.9625    287660.9625    287662.1460
    870.00    284371.9632    284370.7931    284370.7931    284370.7931    284371.9632    284370.7931    284370.7931    284370.7931    284371.9632
    880.00    281156.0127    281154.8559    281154.8560    281154.8559    281156.0127    281154.8559    281154.8560    281154.8559    281156.0127
    890.00    278011.8165    278010.6727    278010.6727    278010.6727    278011.8165    278010.6727    278010.6727    278010.6727    278011.8165
    900.00    274937.0051    274935.8739    274935.8739    274935.8739    274937.0051    274935.8739    274935.8739    274935.8739    274937.0051
    910.00    271929.3121    271928.1933    271928.1933    271928.1933    271929.3121    271928.1933    271928.1933    271928.1933    271929.3121
    920.00    268986.5684    268985.4618    268985.4618    268985.4618    268986.5684    268985.4618    268985.4618    268985.4618    268986.5684
    930.00    266106.6974    266105.6027    266105.6027    266105.6027    266106.6974    266105.6027    266105.6027    266105.6027    266106.6974
    940.00    263287.7097    263286.6265    263286.6265    263286.6265    263287.7096    263286.6265    263286.6265    263286.6265    263287.7096
    950.00    260527.6987    260526.6269    260526.6269    260526.6269    260527.6987    260526.6269    260526.6269    260526.6269    260527.6987
    960.00    257824.8366    257823.7760    257823.7760    257823.7760    257824.8366    257823.7760    257823.7760    257823.7760    257824.8366
    970.00    255177.3702    255176.3205    255176.3205    255176.3205    255177.3702    255176.3205    255176.3205    255176.3205    255177.3702
    980.00    252583.6171    252582.5781    252582.5781    252582.5781    252583.6171    252582.5781    252582.5781    252582.5781    252583.6171
    990.00    250041.9621    250040.9335    250040.9335    250040.9335    250041.9621    250040.9335    250040.9335    250040.9335    250041.9621
   1000.00    247550.8542    247549.8359    247549.8359    247549.8359    247550.8542    247549.8359    247549.8359    247549.8359    247550.8542
