# Temperature [K], Thermal Conductivity (xx, xy, xz, yx, yy, yz, zx, zy, zz) [W/mK]
      0.00         0.0000         0.0000         0.0000         0.0000         0.0000         0.0000         0.0000         0.0000         0.0000
     10.00        23.7120         9.8056         9.8056         9.8056        23.7120         9.8056         9.8056         9.8056        23.7120
     20.00    183899.5290    183835.1732    183835.1732    183835.1732    183899.5290    183835.1732    183835.1732    183835.1732    183899.5290
     30.00   3149609.4162   3149558.1293   3149558.1292   3149558.1293   3149609.4163   3149558.1293   3149558.1292   3149558.1293   3149609.4162
     40.00  10384232.9464  10384183.8316  10384183.8315  10384183.8316  10384232.9466  10384183.8316  10384183.8315  10384183.8316  10384232.9465
     50.00  18567328.4024  18567277.0027  18567277.0026  18567277.0027  18567328.4027  18567277.0027  18567277.0026  18567277.0027  18567328.4025
     60.00  25115711.7630  25115658.5814  25115658.5812  25115658.5814  25115711.7634  25115658.5814  25115658.5812  25115658.5814  25115711.7631
     70.00  29444985.9946  29444932.3736  29444932.3735  29444932.3736  29444985.9950  29444932.3737  29444932.3735  29444932.3737  29444985.9947
     80.00  31894475.2741  31894422.3345  31894422.3343  31894422.3345  31894475.2745  31894422.3346  31894422.3343  31894422.3346  31894475.2742
     90.00  32991182.4851  32991130.9607  32991130.9605  32991130.9607  32991182.4855  32991130.9608  32991130.9605  32991130.9608  32991182.4852
    100.00  33188044.4255  33187994.7316  33187994.7314  33187994.7316  33188044.4260  33187994.7316  33187994.7314  33187994.7316  33188044.4256
    110.00  32815211.7278  32815164.0603  32815164.0601  32815164.0603  32815211.7282  32815164.0603  32815164.0601  32815164.0603  32815211.7278
    120.00  32097355.1397  32097309.5556  32097309.5555  32097309.5556  32097355.1401  32097309.5557  32097309.5555  32097309.5557  32097355.1397
    130.00  31182354.6796  31182311.1527  31182311.1525  31182311.1527  31182354.6800  31182311.1527  31182311.1525  31182311.1527  31182354.6797
    140.00  30165729.2010  30165687.6574  30165687.6573  30165687.6574  30165729.2014  30165687.6575  30165687.6573  30165687.6575  30165729.2011
    150.00  29108312.6929  29108273.0342  29108273.0340  29108273.0342  29108312.6933  29108273.0342  29108273.0340  29108273.0342  29108312.6930
    160.00  28048258.3269  28048220.4437  28048220.4436  28048220.4437  28048258.3272  28048220.4437  28048220.4436  28048220.4437  28048258.3269
    170.00  27008972.0340  27008935.8145  27008935.8144  27008935.8145  27008972.0343  27008935.8145  27008935.8144  27008935.8145  27008972.0340
    180.00  26004299.0217  26004264.3564  26004264.3562  26004264.3564  26004299.0221  26004264.3564  26004264.3562  26004264.3564  26004299.0218
    190.00  25041904.2050  25041870.9891  25041870.9889  25041870.9891  25041904.2053  25041870.9891  25041870.9889  25041870.9891  25041904.2050
    200.00  24125477.1228  24125445.2581  24125445.2580  24125445.2581  24125477.1231  24125445.2581  24125445.2580  24125445.2581  24125477.1229
    210.00  23256173.3250  23256142.7199  23256142.7198  23256142.7199  23256173.3253  23256142.7200  23256142.7198  23256142.7200  23256173.3251
    220.00  22433558.7920  22433529.3620  22433529.3619  22433529.3620  22433558.7923  22433529.3620  22433529.3619  22433529.3620  22433558.7921
    230.00  21656229.5688  21656201.2359  21656201.2358  21656201.2359  21656229.5691  21656201.2359  21656201.2358  21656201.2359  21656229.5689
    240.00  20922218.1083  20922190.8009  20922190.8008  20922190.8009  20922218.1086  20922190.8009  20922190.8008  20922190.8009  20922218.1083
    250.00  20229258.8726  20229232.5250  20229232.5249  20229232.5250  20229258.8729  20229232.5250  20229232.5249  20229232.5250  20229258.8727
    260.00  19574960.6727  19574935.2246  19574935.2245  19574935.2246  19574960.6730  19574935.2246  19574935.2245  19574935.2246  19574960.6728
    270.00  18956917.0160  18956892.4120  18956892.4119  18956892.4120  18956917.0163  18956892.4121  18956892.4119  18956892.4121  18956917.0161
    280.00  18372775.1795  18372751.3687  18372751.3686  18372751.3687  18372775.1797  18372751.3688  18372751.3686  18372751.3688  18372775.1795
    290.00  17820277.8116  17820254.7473  17820254.7472  17820254.7473  17820277.8118  17820254.7473  17820254.7472  17820254.7473  17820277.8116
    300.00  17297286.3056  17297263.9448  17297263.9447  17297263.9448  17297286.3058  17297263.9448  17297263.9447  17297263.9448  17297286.3056
    310.00  16801792.1561  16801770.4592  16801770.4591  16801770.4592  16801792.1563  16801770.4592  16801770.4591  16801770.4592  16801792.1562
    320.00  16331920.4848  16331899.4152  16331899.4151  16331899.4152  16331920.4850  16331899.4152  16331899.4151  16331899.4152  16331920.4848
    330.00  15885928.5610  15885908.0849  15885908.0848  15885908.0849  15885928.5612  15885908.0849  15885908.0848  15885908.0849  15885928.5610
    340.00  15462201.2225  15462181.3086  15462181.3085  15462181.3086  15462201.2227  15462181.3086  15462181.3085  15462181.3086  15462201.2225
    350.00  15059244.4761  15059225.0955  15059225.0955  15059225.0955  15059244.4763  15059225.0956  15059225.0955  15059225.0956  15059244.4762
    360.00  14675678.1360  14675659.2618  14675659.2618  14675659.2618  14675678.1362  14675659.2619  14675659.2618  14675659.2619  14675678.1361
    370.00  14310228.0635  14310209.6708  14310209.6707  14310209.6708  14310228.0637  14310209.6708  14310209.6707  14310209.6708  14310228.0636
    380.00  13961718.3788  13961700.4442  13961700.4442  13961700.4442  13961718.3789  13961700.4442  13961700.4442  13961700.4442  13961718.3788
    390.00  13629063.8761  13629046.3782  13629046.3781  13629046.3782  13629063.8763  13629046.3782  13629046.3781  13629046.3782  13629063.8762
    400.00  13311262.7858  13311245.7042  13311245.7041  13311245.7042  13311262.7860  13311245.7042  13311245.7041  13311245.7042  13311262.7858
    410.00  13007389.9601  13007373.2761  13007373.2760  13007373.2761  13007389.9603  13007373.2761  13007373.2760  13007373.2761  13007389.9602
    420.00  12716590.5237  12716574.2195  12716574.2195  12716574.2195  12716590.5239  12716574.2196  12716574.2195  12716574.2196  12716590.5238
    430.00  12438073.9968  12438058.0560  12438058.0559  12438058.0560  12438073.9970  12438058.0560  12438058.0559  12438058.0560  12438073.9968
    440.00  12171108.8853  12171093.2923  12171093.2923  12171093.2923  12171108.8855  12171093.2923  12171093.2923  12171093.2923  12171108.8853
    450.00  11915017.7191  11915002.4594  11915002.4594  11915002.4594  11915017.7192  11915002.4594  11915002.4594  11915002.4594  11915017.7191
    460.00  11669172.5137  11669157.5736  11669157.5736  11669157.5736  11669172.5138  11669157.5736  11669157.5736  11669157.5736  11669172.5137
    470.00  11432990.6275  11432975.9942  11432975.9941  11432975.9942  11432990.6276  11432975.9942  11432975.9941  11432975.9942  11432990.6275
    480.00  11205930.9850  11205916.6463  11205916.6463  11205916.6463  11205930.9851  11205916.6463  11205916.6463  11205916.6463  11205930.9850
    490.00  10987490.6365  10987476.5810  10987476.5809  10987476.5810  10987490.6366  10987476.5810  10987476.5809  10987476.5810  10987490.6365
    500.00  10777201.6261  10777187.8431  10777187.8430  10777187.8431  10777201.6262  10777187.8431  10777187.8430  10777187.8431  10777201.6261
    510.00  10574628.1411  10574614.6202  10574614.6202  10574614.6202  10574628.1412  10574614.6203  10574614.6202  10574614.6203  10574628.1411
    520.00  10379363.9164  10379350.6482  10379350.6482  10379350.6482  10379363.9166  10379350.6482  10379350.6482  10379350.6482  10379363.9165
    530.00  10191029.8725  10191016.8477  10191016.8476  10191016.8477  10191029.8726  10191016.8477  10191016.8476  10191016.8477  10191029.8725
    540.00  10009271.9625  10009259.1725  10009259.1724  10009259.1725  10009271.9626  10009259.1725  10009259.1724  10009259.1725  10009271.9625
    550.00   9833759.2119   9833746.6485   9833746.6485   9833746.6485   9833759.2120   9833746.6485   9833746.6485   9833746.6485   9833759.2119
    560.00   9664181.9303   9664169.5857   9664169.5857   9664169.5857   9664181.9304   9664169.5857   9664169.5857   9664169.5857   9664181.9303
    570.00   9500250.0796   9500237.9465   9500237.9464   9500237.9465   9500250.0798   9500237.9465   9500237.9464   9500237.9465   9500250.0797
    580.00   9341691.7850   9341679.8563   9341679.8562   9341679.8563   9341691.7852   9341679.8563   9341679.8562   9341679.8563   9341691.7851
    590.00   9188251.9735   9188240.2424   9188240.2423   9188240.2424   9188251.9736   9188240.2424   9188240.2423   9188240.2424   9188251.9735
    600.00   9039691.1290   9039679.5893   9039679.5892   9039679.5893   9039691.1292   9039679.5893   9039679.5892   9039679.5893   9039691.1291
    610.00   8895784.1537   8895772.7992   8895772.7991   8895772.7992   8895784.1538   8895772.7992   8895772.7991   8895772.7992   8895784.1537
    620.00   8756319.3238   8756308.1487   8756308.1486   8756308.1487   8756319.3239   8756308.1487   8756308.1486   8756308.1487   8756319.3238
    630.00   8621097.3328   8621086.3316   8621086.3316   8621086.3316   8621097.3329   8621086.3316   8621086.3316   8621086.3316   8621097.3328
    640.00   8489930.4138   8489919.5813   8489919.5812   8489919.5813   8489930.4139   8489919.5813   8489919.5812   8489919.5813   8489930.4138
    650.00   8362641.5326   8362630.8637   8362630.8636   8362630.8637   8362641.5327   8362630.8637   8362630.8636   8362630.8637   8362641.5326
    660.00   8239063.6464   8239053.1363   8239053.1363   8239053.1363   8239063.6465   8239053.1363   8239053.1363   8239053.1363   8239063.6465
    670.00   8119039.0219   8119028.6659   8119028.6659   8119028.6659   8119039.0220   8119028.6659   8119028.6659   8119028.6659   8119039.0219
    680.00   8002418.6066   8002408.4003   8002408.4003   8002408.4003   8002418.6067   8002408.4004   8002408.4003   8002408.4004   8002418.6066
    690.00   7889061.4500   7889051.3893   7889051.3892   7889051.3893   7889061.4501   7889051.3893   7889051.3892   7889051.3893   7889061.4500
    700.00   7778834.1694   7778824.2501   7778824.2500   7778824.2501   7778834.1695   7778824.2501   7778824.2500   7778824.2501   7778834.1694
    710.00   7671610.4563   7671600.6745   7671600.6745   7671600.6745   7671610.4563   7671600.6746   7671600.6745   7671600.6746   7671610.4563
    720.00   7567270.6207   7567260.9729   7567260.9728   7567260.9729   7567270.6208   7567260.9729   7567260.9728   7567260.9729   7567270.6208
    730.00   7465701.1696   7465691.6520   7465691.6520   7465691.6520   7465701.1697   7465691.6520   7465691.6520   7465691.6520   7465701.1697
    740.00   7366794.4161   7366785.0253   7366785.0252   7366785.0253   7366794.4162   7366785.0253   7366785.0252   7366785.0253   7366794.4161
    750.00   7270448.1180   7270438.8507   7270438.8506   7270438.8507   7270448.1181   7270438.8507   7270438.8506   7270438.8507   7270448.1180
    760.00   7176565.1424   7176555.9954   7176555.9953   7176555.9954   7176565.1425   7176555.9954   7176555.9953   7176555.9954   7176565.1425
    770.00   7085053.1545   7085044.1246   7085044.1246   7085044.1246   7085053.1545   7085044.1246   7085044.1246   7085044.1246   7085053.1545
    780.00   6995824.3280   6995815.4125   6995815.4125   6995815.4125   6995824.3281   6995815.4125   6995815.4125   6995815.4125   6995824.3280
    790.00   6908795.0772   6908786.2732   6908786.2731   6908786.2732   6908795.0773   6908786.2732   6908786.2731   6908786.2732   6908795.0773
    800.00   6823885.8064   6823877.1111   6823877.1110   6823877.1111   6823885.8065   6823877.1111   6823877.1110   6823877.1111   6823885.8064
    810.00   6741020.6772   6741012.0879   6741012.0879   6741012.0879   6741020.6773   6741012.0879   6741012.0879   6741012.0879   6741020.6772
    820.00   6660127.3920   6660118.9062   6660118.9062   6660118.9062   6660127.3921   6660118.9063   6660118.9062   6660118.9063   6660127.3920
    830.00   6581136.9916   6581128.6069   6581128.6069   6581128.6069   6581136.9916   6581128.6069   6581128.6069   6581128.6069   6581136.9916
    840.00   6503983.6666   6503975.3807   6503975.3807   6503975.3807   6503983.6667   6503975.3807   6503975.3807   6503975.3807   6503983.6667
    850.00   6428604.5817   6428596.3922   6428596.3922   6428596.3922   6428604.5818   6428596.3922   6428596.3922   6428596.3922   6428604.5817
    860.00   6354939.7104   6354931.6151   6354931.6151   6354931.6151   6354939.7105   6354931.6151   6354931.6151   6354931.6151   6354939.7104
    870.00   6282931.6818   6282923.6786   6282923.6786   6282923.6786   6282931.6819   6282923.6787   6282923.6786   6282923.6787   6282931.6818
    880.00   6212525.6364   6212517.7233   6212517.7233   6212517.7233   6212525.6365   6212517.7233   6212517.7233   6212517.7233   6212525.6365
    890.00   6143669.0915   6143661.2664   6143661.2664   6143661.2664   6143669.0916   6143661.2664   6143661.2664   6143661.2664   6143669.0915
    900.00   6076311.8145   6076304.0755   6076304.0755   6076304.0755   6076311.8146   6076304.0755   6076304.0755   6076304.0755   6076311.8145
    910.00   6010405.7050   6010398.0503   6010398.0503   6010398.0503   6010405.7051   6010398.0503   6010398.0503   6010398.0503   6010405.7051
    920.00   5945904.6837   5945897.1115   5945897.1114   5945897.1115   5945904.6838   5945897.1115   5945897.1114   5945897.1115   5945904.6838
    930.00   5882764.5880   5882757.0964   5882757.0963   5882757.0964   5882764.5880   5882757.0964   5882757.0963   5882757.0964   5882764.5880
    940.00   5820943.0739   5820935.6613   5820935.6612   5820935.6613   5820943.0739   5820935.6613   5820935.6612   5820935.6613   5820943.0739
    950.00   5760399.5245   5760392.1893   5760392.1893   5760392.1893   5760399.5246   5760392.1893   5760392.1893   5760392.1893   5760399.5245
    960.00   5701094.9633   5701087.7038   5701087.7038   5701087.7038   5701094.9634   5701087.7039   5701087.7038   5701087.7039   5701094.9633
    970.00   5642991.9726   5642984.7873   5642984.7873   5642984.7873   5642991.9726   5642984.7873   5642984.7873   5642984.7873   5642991.9726
    980.00   5586054.6168   5586047.5043   5586047.5043   5586047.5043   5586054.6169   5586047.5043   5586047.5043   5586047.5043   5586054.6168
    990.00   5530248.3708   5530241.3295   5530241.3295   5530241.3295   5530248.3708   5530241.3295   5530241.3295   5530241.3295   5530248.3708
   1000.00   5475540.0511   5475533.0797   5475533.0797   5475533.0797   5475540.0511   5475533.0797   5475533.0797   5475533.0797   5475540.0511
