# k-axis, Phonon energy [meV], band-1, band-2, band-3, band-4, band-5, band-6, band-7
     1     0.000000    0.000000     0.000000     0.000000    57.398847    57.398847    57.398847 
     2     0.012562    1.102089     1.102089     1.479143    57.394495    57.394495    57.397868 
     3     0.025123    2.203218     2.203218     2.957063    57.381415    57.381415    57.394892 
     4     0.037685    3.302424     3.302424     4.432537    57.359645    57.359645    57.389970 
     5     0.050246    4.398752     4.398752     5.904344    57.329195    57.329195    57.383126 
     6     0.062808    5.491251     5.491251     7.371269    57.290117    57.290117    57.374398 
     7     0.075370    6.578976     6.578976     8.832102    57.242459    57.242459    57.363835 
     8     0.087931    7.660988     7.660988    10.285639    57.186296    57.186296    57.351487 
     9     0.100493    8.736360     8.736360    11.730685    57.121690    57.121690    57.337427 
    10     0.113055    9.804174     9.804174    13.166056    57.048728    57.048728    57.321707 
    11     0.125616   10.863523    10.863523    14.590574    56.967521    56.967521    57.304387 
    12     0.138178   11.913517    11.913517    16.003078    56.878181    56.878181    57.285505 
    13     0.150739   12.953282    12.953282    17.402428    56.780832    56.780832    57.265097 
    14     0.163301   13.981944    13.981944    18.787483    56.675622    56.675622    57.243178 
    15     0.175863   14.998654    14.998654    20.157140    56.562689    56.562689    57.219758 
    16     0.188424   16.002595    16.002595    21.510294    56.442230    56.442230    57.194801 
    17     0.200986   16.992934    16.992934    22.845894    56.314419    56.314419    57.168244 
    18     0.213548   17.968880    17.968880    24.162884    56.179442    56.179442    57.140002 
    19     0.226109   18.929651    18.929651    25.460248    56.037559    56.037559    57.109936 
    20     0.238671   19.874478    19.874478    26.736994    55.888969    55.888969    57.077863 
    21     0.251232   20.802604    20.802604    27.992155    55.733957    55.733957    57.043582 
    22     0.263794   21.713287    21.713287    29.224814    55.572808    55.572808    57.006810 
    23     0.276356   22.605794    22.605794    30.434077    55.405807    55.405807    56.967223 
    24     0.288917   23.479407    23.479407    31.619091    55.233288    55.233288    56.924462 
    25     0.301479   24.333393    24.333393    32.779023    55.055637    55.055637    56.878081 
    26     0.314041   25.167060    25.167060    33.913130    54.873226    54.873226    56.827609 
    27     0.326602   25.979674    25.979674    35.020668    54.686475    54.686475    56.772488 
    28     0.339164   26.770505    26.770505    36.100955    54.495868    54.495868    56.712134 
    29     0.351725   27.538822    27.538822    37.153359    54.301901    54.301901    56.645892 
    30     0.364287   28.283843    28.283843    38.177323    54.105157    54.105157    56.573053 
    31     0.376849   29.004799    29.004799    39.172287    53.906244    53.906244    56.492876 
    32     0.389410   29.700847    29.700847    40.137818    53.705842    53.705842    56.404540 
    33     0.401972   30.371095    30.371095    41.073471    53.504722    53.504722    56.307203 
    34     0.414533   31.014626    31.014626    41.978921    53.303701    53.303701    56.199985 
    35     0.427095   31.630410    31.630410    42.853861    53.103734    53.103734    56.081944 
    36     0.439657   32.217368    32.217368    43.698065    52.905837    52.905837    55.952137 
    37     0.452218   32.774311    32.774311    44.511386    52.711151    52.711151    55.809572 
    38     0.464780   33.299962    33.299962    45.293700    52.520928    52.520928    55.653246 
    39     0.477342   33.792906    33.792906    46.045007    52.336570    52.336570    55.482153 
    40     0.489903   34.251657    34.251657    46.765318    52.159551    52.159551    55.295229 
    41     0.502465   34.674578    34.674578    47.454746    51.991509    51.991509    55.091468 
    42     0.515026   35.059969    35.059969    48.113464    51.834154    51.834154    54.869829 
    43     0.527588   35.406035    35.406035    48.741708    51.689283    51.689283    54.629270 
    44     0.540150   35.710951    35.710951    49.339787    51.558744    51.558744    54.368776 
    45     0.552711   35.972933    35.972933    49.908062    51.444348    51.444348    54.087378 
    46     0.565273   36.190233    36.190233    50.446991    51.347867    51.347867    53.784061 
    47     0.577835   36.361264    36.361264    50.957057    51.270850    51.270850    53.457920 
    48     0.590396   36.484710    36.484710    51.214687    51.214687    51.438818    53.108011 
    49     0.602958   36.559545    36.559545    51.180407    51.180407    51.892920    52.733492 
    50     0.615519   36.585097    36.585109    51.168641    51.168654    52.326751    52.326763 
    51     0.615519   36.585109    36.585122    51.168654    51.168654    52.326751    52.326763 
    52     0.633284   36.565645    36.633362    51.061262    51.169968    52.300095    52.434824 
    53     0.651049   36.508502    36.773807    50.816377    51.173886    52.222137    52.681408 
    54     0.668814   36.413744    37.002848    50.516221    51.180618    52.093854    52.983461 
    55     0.686579   36.281433    37.314583    50.195733    51.190487    51.917009    53.304730 
    56     0.704343   36.111692    37.700855    49.868364    51.203901    51.694205    53.629929 
    57     0.722108   35.904670    38.151274    49.539941    51.221432    51.429173    53.950951 
    58     0.739873   35.660553    38.653096    49.213192    51.127182    51.243711    54.262401 
    59     0.757638   35.379540    39.190995    48.889319    50.795573    51.271433    54.560040 
    60     0.775403   35.061904    39.746289    48.568619    50.444722    51.305391    54.840197 
    61     0.793168   34.707928    40.295918    48.250772    50.089395    51.346379    55.099626 
    62     0.810932   34.317949    40.810794    47.934921    49.750570    51.395215    55.335423 
    63     0.828697   33.892338    41.254171    47.619664    49.457209    51.452754    55.545036 
    64     0.846462   33.431505    41.581851    47.303143    49.246232    51.519753    55.726382 
    65     0.864227   32.935919    41.747761    46.982890    49.156954    51.596992    55.877910 
    66     0.881992   32.406066    41.717224    46.655856    49.217990    51.685117    55.998654 
    67     0.899756   31.842502    41.480819    46.318320    49.433281    51.784735    56.088440 
    68     0.917521   31.245824    41.055518    45.965808    49.781094    51.896280    56.147864 
    69     0.935286   30.616650    40.472254    45.593075    50.226430    52.020124    56.178475 
    70     0.953051   29.955651    39.762642    45.194070    50.734253    52.156427    56.182727 
    71     0.970816   29.263570    38.952607    44.761975    51.275872    52.305253    56.164093 
    72     0.988581   28.541163    38.061525    44.289227    51.829789    52.466427    56.126862 
    73     1.006345   27.789249    37.103395    43.767742    52.380447    52.639676    56.076117 
    74     1.024110   27.008646    36.088384    43.189140    52.824493    52.916685    56.017437 
    75     1.041875   26.200259    35.023990    42.545039    53.020221    53.430594    55.956637 
    76     1.059640   25.365006    33.915857    41.827418    53.226027    53.916596    55.899383 
    77     1.077405   24.503841    32.768360    41.028987    53.440910    54.370821    55.850845 
    78     1.095169   23.617756    31.584996    40.143509    53.663702    54.790804    55.815424 
    79     1.112934   22.707743    30.368566    39.166063    53.893127    55.175092    55.796480 
    80     1.130699   21.774855    29.121427    38.093103    54.127759    55.523129    55.796232 
    81     1.148464   20.820135    27.845586    36.922583    54.366048    55.815759    55.835038 
    82     1.166229   19.844673    26.542791    35.653784    54.606371    55.855073    56.111538 
    83     1.183993   18.849560    25.214556    34.287252    54.847041    55.913269    56.353857 
    84     1.201758   17.835899    23.862307    32.824610    55.086310    55.988674    56.563581 
    85     1.219523   16.804795    22.487331    31.268438    55.322393    56.079105    56.742683 
    86     1.237288   15.757362    21.090882    29.622033    55.553504    56.181934    56.893381 
    87     1.255053   14.694717    19.674151    27.889375    55.777858    56.294297    57.018067 
    88     1.272818   13.618000    18.238338    26.074928    55.993695    56.413206    57.119322 
    89     1.290582   12.528303    16.784648    24.183638    56.199341    56.535673    57.199785 
    90     1.308347   11.426752    15.314307    22.220799    56.393146    56.658699    57.262122 
    91     1.326112   10.314458    13.828580    20.192027    56.573574    56.779468    57.308986 
    92     1.343877    9.192522    12.328796    18.103200    56.739162    56.895265    57.342957 
    93     1.361642    8.062040    10.816318    15.960441    56.888570    57.003611    57.366463 
    94     1.379406    6.924102     9.292574    13.770062    57.020621    57.102262    57.381800 
    95     1.397171    5.779788     7.759047    11.538551    57.134212    57.189209    57.391036 
    96     1.414936    4.630172     6.217275     9.272549    57.228449    57.262754    57.395983 
    97     1.432701    3.476325     4.668841     6.978808    57.302539    57.321446    57.398178 
    98     1.450466    2.319309     3.115374     4.664180    57.355900    57.364182    57.398859 
    99     1.468231    1.160181     1.558534     2.335587    57.388098    57.390144    57.398897 
   100     1.485995    0.000000     0.000000     0.000000    57.398847    57.398847    57.398847 
   101     1.485995    0.000000     0.000000     0.000000    57.398847    57.398847    57.398847 
   102     1.496874    0.800092     0.800092     1.477318    57.395066    57.395066    57.399132 
   103     1.507753    1.599440     1.599440     2.953376    57.383746    57.383746    57.399950 
   104     1.518631    2.397301     2.397301     4.426913    57.364889    57.364889    57.401265 
   105     1.529510    3.192933     3.192933     5.896674    57.338593    57.338593    57.403000 
   106     1.540389    3.985594     3.985594     7.361407    57.304920    57.304920    57.405071 
   107     1.551267    4.774548     4.774548     8.819870    57.263982    57.263982    57.407340 
   108     1.562146    5.559060     5.559060    10.270827    57.215902    57.215902    57.409646 
   109     1.573025    6.338398     6.338398    11.713054    57.160843    57.160843    57.411828 
   110     1.583903    7.111837     7.111837    13.145339    57.098964    57.098964    57.413650 
   111     1.594782    7.878653     7.878653    14.566485    57.030490    57.030490    57.414902 
   112     1.605661    8.638128     8.638128    15.975319    56.955606    56.955606    57.415324 
   113     1.616540    9.389551     9.389551    17.370664    56.874585    56.874585    57.414630 
   114     1.627418   10.132213    10.132213    18.751392    56.787675    56.787675    57.412510 
   115     1.638297   10.865418    10.865418    20.116363    56.695161    56.695161    57.408641 
   116     1.649176   11.588466    11.588466    21.464509    56.597354    56.597354    57.402678 
   117     1.660054   12.300671    12.300671    22.794740    56.494562    56.494562    57.394235 
   118     1.670933   13.001349    13.001349    24.106027    56.387158    56.387158    57.382940 
   119     1.681812   13.689834    13.689834    25.397365    56.275477    56.275477    57.368360 
   120     1.692690   14.365439    14.365439    26.667763    56.159915    56.159915    57.350098 
   121     1.703569   15.027504    15.027504    27.916304    56.040882    56.040882    57.327670 
   122     1.714448   15.675387    15.675387    29.142069    55.918774    55.918774    57.300630 
   123     1.725326   16.308416    16.308416    30.344217    55.794050    55.794050    57.268482 
   124     1.736205   16.925960    16.925960    31.521903    55.667156    55.667156    57.230730 
   125     1.747084   17.527363    17.527363    32.674383    55.538552    55.538552    57.186854 
   126     1.757962   18.111990    18.111990    33.800915    55.408732    55.408732    57.136307 
   127     1.768841   18.679211    18.679211    34.900841    55.278194    55.278194    57.078545 
   128     1.779720   19.228405    19.228405    35.973528    55.147432    55.147432    57.012984 
   129     1.790598   19.758941    19.758941    37.018407    55.017005    55.017005    56.939042 
   130     1.801477   20.270197    20.270197    38.034969    54.887409    54.887409    56.856100 
   131     1.812356   20.761567    20.761567    39.022767    54.759226    54.759226    56.763549 
   132     1.823234   21.232430    21.232430    39.981418    54.632990    54.632990    56.660720 
   133     1.834113   21.682205    21.682205    40.910573    54.509258    54.509258    56.546980 
   134     1.844992   22.110258    22.110258    41.809974    54.388600    54.388600    56.421637 
   135     1.855871   22.516033    22.516033    42.679408    54.271588    54.271588    56.284006 
   136     1.866749   22.898945    22.898945    43.518753    54.158779    54.158779    56.133358 
   137     1.877628   23.258412    23.258412    44.327921    54.050742    54.050742    55.968986 
   138     1.888507   23.593890    23.593890    45.106900    53.948025    53.948025    55.790145 
   139     1.899385   23.904844    23.904844    45.855751    53.851159    53.851159    55.596103 
   140     1.910264   24.190754    24.190754    46.574575    53.760679    53.760679    55.386081 
   141     1.921143   24.451137    24.451137    47.263532    53.677091    53.677091    55.159347 
   142     1.932021   24.685534    24.685534    47.922845    53.600856    53.600856    54.915131 
   143     1.942900   24.893498    24.893498    48.552762    53.532444    53.532444    54.652715 
   144     1.953779   25.074633    25.074633    49.153545    53.472227    53.472227    54.371417 
   145     1.964657   25.228616    25.228616    49.725402    53.420602    53.420602    54.070641 
   146     1.975536   25.355113    25.355113    50.268385    53.377890    53.377890    53.750029 
   147     1.986415   25.453875    25.453875    50.782072    53.344329    53.344329    53.409741 
   148     1.997293   25.524705    25.524705    51.264168    53.051873    53.320165    53.320165 
   149     2.008172   25.567441    25.567441    51.702797    52.688165    53.305536    53.305536 
   150     2.019051   25.582021    25.582021    51.976483    52.440007    53.300539    53.300539 
