# k-axis, Phonon energy [meV], band-1, band-2, band-3, band-4, band-5, band-6, band-7
     1     0.000000    0.000000     0.000000     0.000000   153.370699   153.370699   153.370699 
     2     0.018981    2.217272     2.217273     2.932365   153.334621   153.334621   153.370575 
     3     0.037962    4.432524     4.432524     5.862122   153.226510   153.226510   153.370079 
     4     0.056943    6.643729     6.643729     8.786677   153.046863   153.046863   153.368715 
     5     0.075924    8.848841     8.848841    11.703484   152.796547   152.796547   153.365616 
     6     0.094905   11.045796    11.045796    14.610051   152.476679   152.476679   153.359541 
     7     0.113886   13.232497    13.232497    17.503955   152.088746   152.088746   153.349126 
     8     0.132867   15.406821    15.406821    20.382882   151.634607   151.634607   153.332389 
     9     0.151848   17.566590    17.566590    23.244638   151.116370   151.116370   153.307345 
    10     0.170829   19.709597    19.709597    26.087128   150.536392   150.536392   153.271639 
    11     0.189810   21.833560    21.833560    28.908404   149.897275   149.897275   153.222915 
    12     0.208792   23.936162    23.936162    31.706707   149.202243   149.202243   153.158321 
    13     0.227773   26.015021    26.015021    34.480413   148.454520   148.454520   153.075130 
    14     0.246754   28.067696    28.067696    37.228082   147.657576   147.657576   152.970243 
    15     0.265735   30.091694    30.091694    39.948464   146.815256   146.815256   152.840808 
    16     0.284716   32.084462    32.084462    42.640479   145.931527   145.931527   152.683602 
    17     0.303697   34.043395    34.043395    45.303259   145.010851   145.010851   152.495524 
    18     0.322678   35.965842    35.965842    47.936136   144.057445   144.057445   152.273724 
    19     0.341659   37.849098    37.849098    50.538600   143.076020   143.076020   152.015101 
    20     0.360640   39.690424    39.690424    53.110366   142.071534   142.071534   151.716682 
    21     0.379621   41.487093    41.487093    55.651312   141.048823   141.048823   151.375737 
    22     0.398602   43.236339    43.236339    58.161498   140.012970   140.012970   150.989787 
    23     0.417583   44.935410    44.935410    60.641147   138.969058   138.969058   150.556229 
    24     0.436564   46.581580    46.581580    63.090632   137.922295   137.922295   150.072831 
    25     0.455545   48.172218    48.172218    65.510462   136.878011   136.878011   149.537609 
    26     0.474526   49.704723    49.704723    67.901267   135.841291   135.841291   148.948580 
    27     0.493507   51.176626    51.176626    70.263781   134.817216   134.817216   148.304504 
    28     0.512488   52.585609    52.585609    72.598807   133.810746   133.810746   147.603645 
    29     0.531469   53.929527    53.929527    74.907216   132.826965   132.826965   146.845383 
    30     0.550450   55.206484    55.206484    77.189911   131.870211   131.870211   146.028603 
    31     0.569431   56.414793    56.414793    79.447822   130.945072   130.945072   145.152932 
    32     0.588412   57.553128    57.553128    81.681855   130.055640   130.055640   144.218247 
    33     0.607394   58.620472    58.620472    83.892877   129.205385   129.205385   143.224300 
    34     0.626375   59.616167    59.616167    86.081732   128.397655   128.397655   142.171585 
    35     0.645356   60.539992    60.539992    88.249150   127.635426   127.635426   141.060477 
    36     0.664337   61.392119    61.392119    90.395789   126.920806   126.920806   139.891717 
    37     0.683318   62.173156    62.173156    92.522170   126.255901   126.255901   138.666547 
    38     0.702299   62.884107    62.884107    94.628677   125.641952   125.641952   137.385833 
    39     0.721280   63.526385    63.526385    96.715571   125.079703   125.079703   136.051189 
    40     0.740261   64.101751    64.101751    98.782925   124.569649   124.569649   134.664100 
    41     0.759242   64.612251    64.612251   100.830628   124.111791   124.111791   133.226304 
    42     0.778223   65.060142    65.060142   102.858420   123.705682   123.705682   131.739536 
    43     0.797204   65.447827    65.447827   104.865817   123.350616   123.350616   130.205780 
    44     0.816185   65.777750    65.777750   106.852175   123.045724   123.045724   128.627018 
    45     0.835166   66.052267    66.052267   108.816638   122.790003   122.790003   127.005484 
    46     0.854147   66.273596    66.273596   110.758178   122.582411   122.582411   125.343160 
    47     0.873128   66.443696    66.443696   112.675590   122.421981   122.421981   123.642080 
    48     0.892109   66.564193    66.564193   114.567476   121.904500   122.307845   122.307845 
    49     0.911090   66.636299    66.636299   116.432333   120.132417   122.239346   122.239346 
    50     0.930071   66.660761    66.660798   118.298145   118.298170   122.216050   122.216062 
    51     0.930071   66.660847    66.660922   118.298133   118.298158   122.216000   122.216025 
    52     0.956915   66.642424    66.888326   118.148192   118.197722   122.232093   122.288305 
    53     0.983758   66.588034    67.548619   117.735053   117.904831   122.279552   122.474895 
    54     1.010601   66.496090    68.619223   117.112165   117.425363   122.359594   122.727256 
    55     1.037444   66.364163    70.065016   116.324743   116.769150   122.474065   123.008009 
    56     1.064288   66.189029    71.840732   115.402258   115.950150   122.625432   123.298135 
    57     1.091131   65.966770    73.893506   114.363268   114.986739   122.816733   123.591707 
    58     1.117974   65.692960    76.164733   113.220433   113.902509   123.051402   123.890263 
    59     1.144817   65.362864    78.590587   111.983621   112.727724   123.333147   124.199197 
    60     1.171661   64.971595    81.100376   110.661387   111.502343   123.665797   124.525636 
    61     1.198504   64.514344    83.611591   109.261826   110.281537   124.053148   124.876623 
    62     1.225347   63.986549    86.020114   107.792824   109.145681   124.498732   125.259102 
    63     1.252190   63.384031    88.184507   106.262167   108.215893   125.005563   125.678030 
    64     1.279034   62.703207    89.912317   104.677455   107.667158   125.576243   126.137128 
    65     1.305877   61.941152    90.984149   103.045952   107.703819   126.212508   126.638379 
    66     1.332720   61.095745    91.261009   101.374429   108.451641   126.915350   127.181784 
    67     1.359563   60.165671    90.791248    99.668861   109.850297   127.684274   127.765481 
    68     1.386407   59.150511    89.755606    97.934244   111.708063   128.386497   128.518164 
    69     1.413250   58.050709    88.336258    96.174361   113.832311   129.040616   129.414539 
    70     1.440093   56.867556    86.660582    94.391479   116.085759   129.723497   130.369805 
    71     1.466936   55.603158    84.805717    92.586280   118.381720   130.429936   131.379002 
    72     1.493780   54.260293    82.815863    90.757588   120.666994   131.155838   132.436428 
    73     1.520623   52.842408    80.715344    88.902326   122.908900   131.897239   133.535015 
    74     1.547466   51.353458    78.516782    87.015487   125.087265   132.651533   134.667324 
    75     1.574309   49.797770    76.225892    85.090127   127.190214   133.417482   135.824677 
    76     1.601153   48.179992    73.844484    83.117494   129.210592   134.194836   136.998396 
    77     1.627996   46.504861    71.372459    81.087259   131.145176   134.985209   138.179305 
    78     1.654839   44.777212    68.809086    78.987732   132.992974   135.790955   139.357983 
    79     1.681682   43.001732    66.153955    76.806242   134.754482   136.615298   140.525255 
    80     1.708526   41.182982    63.407612    74.529573   136.431311   137.462081   141.672442 
    81     1.735369   39.325241    60.572016    72.144421   138.025446   138.334900   142.790989 
    82     1.762212   37.432438    57.650799    69.637867   139.236855   139.539118   143.873211 
    83     1.789056   35.508157    54.649367    66.997899   140.169680   140.974187   144.911915 
    84     1.815899   33.555584    51.574862    64.213854   141.133377   142.332511   145.901152 
    85     1.842742   31.577508    48.435986    61.276817   142.126333   143.615456   146.835713 
    86     1.869585   29.576334    45.242744    58.179995   143.143961   144.823642   147.711384 
    87     1.896429   27.554109    42.006085    54.918962   144.179813   145.957439   148.524940 
    88     1.923272   25.512604    38.737489    51.491770   145.224593   147.016476   149.274152 
    89     1.950115   23.453346    35.448473    47.899127   146.266769   147.999885   149.957777 
    90     1.976958   21.377673    32.150109    44.144319   147.293075   148.906551   150.575322 
    91     2.003802   19.286812    28.852576    40.233171   148.288759   149.734985   151.127157 
    92     2.030645   17.181954    25.564651    36.173930   149.237702   150.483329   151.614026 
    93     2.057488   15.064301    22.293365    31.977070   150.123787   151.149597   152.037542 
    94     2.084331   12.935094    19.043700    27.655165   150.930772   151.731931   152.399316 
    95     2.111175   10.795665    15.818397    23.222595   151.643409   152.228471   152.701083 
    96     2.138018    8.647472    12.617866    18.695304   152.247564   152.637481   152.944828 
    97     2.164861    6.492080     9.440318    14.090625   152.731086   152.957225   153.132409 
    98     2.191704    4.331173     6.281969     9.426952   153.083933   153.186589   153.265192 
    99     2.218548    2.166529     3.137391     4.723492   153.298542   153.324578   153.344415 
   100     2.245391    0.000000     0.000000     0.000000   153.370699   153.370699   153.370699 
   101     2.245391    0.000000     0.000000     0.000000   153.370699   153.370699   153.370699 
   102     2.261829    1.549843     1.549843     3.003320   153.347639   153.355077   153.355077 
   103     2.278267    3.097287     3.097287     6.005404   153.278706   153.308337   153.308337 
   104     2.294705    4.639940     4.639940     9.005002   153.164024   153.230849   153.230849 
   105     2.311143    6.175420     6.175420    12.000851   153.004090   153.122863   153.122863 
   106     2.327581    7.701366     7.701366    14.991662   152.799399   152.984997   152.984997 
   107     2.344019    9.215435     9.215435    17.976096   152.550695   152.818120   152.818120 
   108     2.360457   10.715317    10.715317    20.952781   152.258970   152.622851   152.622851 
   109     2.376895   12.198736    12.198736    23.920317   151.924968   152.400431   152.400431 
   110     2.393333   13.663451    13.663451    26.877203   151.550053   152.152099   152.152099 
   111     2.409772   15.107285    15.107285    29.821914   151.135463   151.878971   151.878971 
   112     2.426210   16.528084    16.528084    32.752838   150.682440   151.582659   151.582659 
   113     2.442648   17.923776    17.923776    35.668327   150.192595   151.264651   151.264651 
   114     2.459086   19.292329    19.292329    38.566645   149.667416   150.926557   150.926557 
   115     2.475524   20.631822    20.631822    41.445993   149.108638   150.570363   150.570363 
   116     2.491962   21.940344    21.940344    44.304526   148.517750   150.197679   150.197679 
   117     2.508400   23.216135    23.216135    47.140320   147.896734   149.810613   149.810613 
   118     2.524838   24.457473    24.457473    49.951418   147.247203   149.411026   149.411026 
   119     2.541276   25.662757    25.662757    52.735810   146.570892   149.001148   149.001148 
   120     2.557714   26.830475    26.830475    55.491452   145.869537   148.582839   148.582839 
   121     2.574152   27.959226    27.959226    58.216284   145.144998   148.158456   148.158456 
   122     2.590590   29.047758    29.047758    60.908213   144.398886   147.729857   147.729857 
   123     2.607028   30.094893    30.094893    63.565154   143.632814   147.299274   147.299274 
   124     2.623466   31.099652    31.099652    66.185037   142.848144   146.868816   146.868816 
   125     2.639905   32.061129    32.061129    68.765829   142.046614   146.440465   146.440465 
   126     2.656343   32.978643    32.978643    71.305498   141.229213   146.016081   146.016081 
   127     2.672781   33.851611    33.851611    73.802120   140.397308   145.597773   145.597773 
   128     2.689219   34.679648    34.679648    76.253800   139.551888   145.187275   145.187275 
   129     2.705657   35.462545    35.462545    78.658776   138.693698   144.786324   144.786324 
   130     2.722095   36.200251    36.200251    81.015339   137.823607   144.396530   144.396530 
   131     2.738533   36.892902    36.892902    83.321962   136.941861   144.019507   144.019507 
   132     2.754971   37.540809    37.540809    85.577207   136.048957   143.656370   143.656370 
   133     2.771409   38.144468    38.144468    87.779799   135.145019   143.308606   143.308606 
   134     2.787847   38.704498    38.704510    89.928645   134.229675   142.977207   142.977207 
   135     2.804285   39.221742    39.221742    92.022804   133.302924   142.663166   142.663166 
   136     2.820723   39.697131    39.697131    94.061556   132.364024   142.367350   142.367350 
   137     2.837161   40.131743    40.131743    96.044318   131.412229   142.090379   142.090379 
   138     2.853599   40.526768    40.526768    97.970757   130.446797   141.832996   141.832996 
   139     2.870037   40.883471    40.883471    99.840685   129.466487   141.595326   141.595326 
   140     2.886476   41.203178    41.203178   101.654103   128.470184   141.377989   141.377989 
   141     2.902914   41.487229    41.487229   103.411197   127.456523   141.181109   141.181109 
   142     2.919352   41.736999    41.736999   105.112190   126.424142   141.004934   141.004934 
   143     2.935790   41.953778    41.953778   106.757368   125.371676   140.849463   140.849463 
   144     2.952228   42.138843    42.138843   108.346804   124.298133   140.714820   140.714820 
   145     2.968666   42.293335    42.293335   109.880040   123.203191   140.600883   140.600883 
   146     2.985104   42.418294    42.418294   111.355117   122.087991   140.507650   140.507650 
   147     3.001542   42.514626    42.514626   112.765972   120.957975   140.435246   140.435246 
   148     3.017980   42.583014    42.583026   114.093351   119.831927   140.383422   140.383422 
   149     3.034418   42.624014    42.624014   115.260536   118.786217   140.352179   140.352179 
   150     3.050856   42.638024    42.638024   115.875303   118.212847   140.341517   140.341517 
