# Temperature [K], Thermal Conductivity (xx, xy, xz, yx, yy, yz, zx, zy, zz) [W/mK]
      0.00         0.0000         0.0000         0.0000         0.0000         0.0000         0.0000         0.0000         0.0000         0.0000
     10.00      2337.9790         0.0051         0.0051         0.0051      2337.9790         0.0051         0.0051         0.0051      2337.9790
     20.00       246.3656         0.0042         0.0042         0.0042       246.3656         0.0042         0.0042         0.0042       246.3656
     30.00       145.7412         0.0021         0.0021         0.0021       145.7412         0.0021         0.0021         0.0021       145.7412
     40.00       138.4702         0.0001         0.0001         0.0001       138.4702         0.0001         0.0001         0.0001       138.4702
     50.00       134.9185        -0.0011        -0.0011        -0.0011       134.9185        -0.0011        -0.0011        -0.0011       134.9185
     60.00       128.8623        -0.0016        -0.0016        -0.0016       128.8623        -0.0016        -0.0016        -0.0016       128.8623
     70.00       121.3068        -0.0019        -0.0019        -0.0019       121.3068        -0.0019        -0.0019        -0.0019       121.3068
     80.00       113.3775        -0.0019        -0.0019        -0.0019       113.3775        -0.0019        -0.0019        -0.0019       113.3775
     90.00       105.7023        -0.0019        -0.0019        -0.0019       105.7023        -0.0019        -0.0019        -0.0019       105.7023
    100.00        98.5616        -0.0018        -0.0018        -0.0018        98.5616        -0.0018        -0.0018        -0.0018        98.5616
    110.00        92.0472        -0.0018        -0.0018        -0.0018        92.0472        -0.0018        -0.0018        -0.0018        92.0472
    120.00        86.1595        -0.0017        -0.0017        -0.0017        86.1595        -0.0017        -0.0017        -0.0017        86.1595
    130.00        80.8577        -0.0016        -0.0016        -0.0016        80.8577        -0.0016        -0.0016        -0.0016        80.8577
    140.00        76.0862        -0.0015        -0.0015        -0.0015        76.0862        -0.0015        -0.0015        -0.0015        76.0862
    150.00        71.7867        -0.0014        -0.0014        -0.0014        71.7867        -0.0014        -0.0014        -0.0014        71.7867
    160.00        67.9039        -0.0014        -0.0014        -0.0014        67.9039        -0.0014        -0.0014        -0.0014        67.9039
    170.00        64.3876        -0.0013        -0.0013        -0.0013        64.3876        -0.0013        -0.0013        -0.0013        64.3876
    180.00        61.1937        -0.0013        -0.0013        -0.0013        61.1937        -0.0013        -0.0013        -0.0013        61.1937
    190.00        58.2835        -0.0012        -0.0012        -0.0012        58.2835        -0.0012        -0.0012        -0.0012        58.2835
    200.00        55.6234        -0.0011        -0.0011        -0.0011        55.6234        -0.0011        -0.0011        -0.0011        55.6234
    210.00        53.1845        -0.0011        -0.0011        -0.0011        53.1845        -0.0011        -0.0011        -0.0011        53.1845
    220.00        50.9419        -0.0011        -0.0011        -0.0011        50.9419        -0.0011        -0.0011        -0.0011        50.9419
    230.00        48.8737        -0.0010        -0.0010        -0.0010        48.8737        -0.0010        -0.0010        -0.0010        48.8737
    240.00        46.9613        -0.0010        -0.0010        -0.0010        46.9613        -0.0010        -0.0010        -0.0010        46.9613
    250.00        45.1884        -0.0009        -0.0009        -0.0009        45.1884        -0.0009        -0.0009        -0.0009        45.1884
    260.00        43.5408        -0.0009        -0.0009        -0.0009        43.5408        -0.0009        -0.0009        -0.0009        43.5408
    270.00        42.0060        -0.0009        -0.0009        -0.0009        42.0060        -0.0009        -0.0009        -0.0009        42.0060
    280.00        40.5731        -0.0008        -0.0008        -0.0008        40.5731        -0.0008        -0.0008        -0.0008        40.5731
    290.00        39.2326        -0.0008        -0.0008        -0.0008        39.2326        -0.0008        -0.0008        -0.0008        39.2326
    300.00        37.9761        -0.0008        -0.0008        -0.0008        37.9761        -0.0008        -0.0008        -0.0008        37.9761
    310.00        36.7960        -0.0008        -0.0008        -0.0008        36.7960        -0.0008        -0.0008        -0.0008        36.7960
    320.00        35.6857        -0.0007        -0.0007        -0.0007        35.6857        -0.0007        -0.0007        -0.0007        35.6857
    330.00        34.6393        -0.0007        -0.0007        -0.0007        34.6393        -0.0007        -0.0007        -0.0007        34.6393
    340.00        33.6516        -0.0007        -0.0007        -0.0007        33.6516        -0.0007        -0.0007        -0.0007        33.6516
    350.00        32.7178        -0.0007        -0.0007        -0.0007        32.7178        -0.0007        -0.0007        -0.0007        32.7178
    360.00        31.8337        -0.0007        -0.0007        -0.0007        31.8337        -0.0007        -0.0007        -0.0007        31.8337
    370.00        30.9955        -0.0007        -0.0007        -0.0007        30.9955        -0.0007        -0.0007        -0.0007        30.9955
    380.00        30.1998        -0.0006        -0.0006        -0.0006        30.1998        -0.0006        -0.0006        -0.0006        30.1998
    390.00        29.4434        -0.0006        -0.0006        -0.0006        29.4434        -0.0006        -0.0006        -0.0006        29.4434
    400.00        28.7236        -0.0006        -0.0006        -0.0006        28.7236        -0.0006        -0.0006        -0.0006        28.7236
    410.00        28.0377        -0.0006        -0.0006        -0.0006        28.0377        -0.0006        -0.0006        -0.0006        28.0377
    420.00        27.3835        -0.0006        -0.0006        -0.0006        27.3835        -0.0006        -0.0006        -0.0006        27.3835
    430.00        26.7589        -0.0006        -0.0006        -0.0006        26.7589        -0.0006        -0.0006        -0.0006        26.7589
    440.00        26.1618        -0.0006        -0.0006        -0.0006        26.1618        -0.0006        -0.0006        -0.0006        26.1618
    450.00        25.5906        -0.0005        -0.0005        -0.0005        25.5906        -0.0005        -0.0005        -0.0005        25.5906
    460.00        25.0436        -0.0005        -0.0005        -0.0005        25.0436        -0.0005        -0.0005        -0.0005        25.0436
    470.00        24.5192        -0.0005        -0.0005        -0.0005        24.5192        -0.0005        -0.0005        -0.0005        24.5192
    480.00        24.0163        -0.0005        -0.0005        -0.0005        24.0163        -0.0005        -0.0005        -0.0005        24.0163
    490.00        23.5333        -0.0005        -0.0005        -0.0005        23.5333        -0.0005        -0.0005        -0.0005        23.5333
    500.00        23.0693        -0.0005        -0.0005        -0.0005        23.0693        -0.0005        -0.0005        -0.0005        23.0693
    510.00        22.6231        -0.0005        -0.0005        -0.0005        22.6231        -0.0005        -0.0005        -0.0005        22.6231
    520.00        22.1938        -0.0005        -0.0005        -0.0005        22.1938        -0.0005        -0.0005        -0.0005        22.1938
    530.00        21.7803        -0.0005        -0.0005        -0.0005        21.7803        -0.0005        -0.0005        -0.0005        21.7803
    540.00        21.3818        -0.0005        -0.0005        -0.0005        21.3818        -0.0005        -0.0005        -0.0005        21.3818
    550.00        20.9976        -0.0004        -0.0004        -0.0004        20.9976        -0.0004        -0.0004        -0.0004        20.9976
    560.00        20.6269        -0.0004        -0.0004        -0.0004        20.6269        -0.0004        -0.0004        -0.0004        20.6269
    570.00        20.2689        -0.0004        -0.0004        -0.0004        20.2689        -0.0004        -0.0004        -0.0004        20.2689
    580.00        19.9231        -0.0004        -0.0004        -0.0004        19.9231        -0.0004        -0.0004        -0.0004        19.9231
    590.00        19.5889        -0.0004        -0.0004        -0.0004        19.5889        -0.0004        -0.0004        -0.0004        19.5889
    600.00        19.2656        -0.0004        -0.0004        -0.0004        19.2656        -0.0004        -0.0004        -0.0004        19.2656
    610.00        18.9528        -0.0004        -0.0004        -0.0004        18.9528        -0.0004        -0.0004        -0.0004        18.9528
    620.00        18.6499        -0.0004        -0.0004        -0.0004        18.6499        -0.0004        -0.0004        -0.0004        18.6499
    630.00        18.3565        -0.0004        -0.0004        -0.0004        18.3565        -0.0004        -0.0004        -0.0004        18.3565
    640.00        18.0722        -0.0004        -0.0004        -0.0004        18.0722        -0.0004        -0.0004        -0.0004        18.0722
    650.00        17.7964        -0.0004        -0.0004        -0.0004        17.7964        -0.0004        -0.0004        -0.0004        17.7964
    660.00        17.5290        -0.0004        -0.0004        -0.0004        17.5290        -0.0004        -0.0004        -0.0004        17.5290
    670.00        17.2694        -0.0004        -0.0004        -0.0004        17.2694        -0.0004        -0.0004        -0.0004        17.2694
    680.00        17.0174        -0.0004        -0.0004        -0.0004        17.0174        -0.0004        -0.0004        -0.0004        17.0174
    690.00        16.7726        -0.0004        -0.0004        -0.0004        16.7726        -0.0004        -0.0004        -0.0004        16.7726
    700.00        16.5347        -0.0004        -0.0004        -0.0004        16.5347        -0.0004        -0.0004        -0.0004        16.5347
    710.00        16.3035        -0.0003        -0.0003        -0.0003        16.3035        -0.0003        -0.0003        -0.0003        16.3035
    720.00        16.0786        -0.0003        -0.0003        -0.0003        16.0786        -0.0003        -0.0003        -0.0003        16.0786
    730.00        15.8598        -0.0003        -0.0003        -0.0003        15.8598        -0.0003        -0.0003        -0.0003        15.8598
    740.00        15.6468        -0.0003        -0.0003        -0.0003        15.6468        -0.0003        -0.0003        -0.0003        15.6468
    750.00        15.4395        -0.0003        -0.0003        -0.0003        15.4395        -0.0003        -0.0003        -0.0003        15.4395
    760.00        15.2376        -0.0003        -0.0003        -0.0003        15.2376        -0.0003        -0.0003        -0.0003        15.2376
    770.00        15.0409        -0.0003        -0.0003        -0.0003        15.0409        -0.0003        -0.0003        -0.0003        15.0409
    780.00        14.8492        -0.0003        -0.0003        -0.0003        14.8492        -0.0003        -0.0003        -0.0003        14.8492
    790.00        14.6623        -0.0003        -0.0003        -0.0003        14.6623        -0.0003        -0.0003        -0.0003        14.6623
    800.00        14.4800        -0.0003        -0.0003        -0.0003        14.4800        -0.0003        -0.0003        -0.0003        14.4800
    810.00        14.3022        -0.0003        -0.0003        -0.0003        14.3022        -0.0003        -0.0003        -0.0003        14.3022
    820.00        14.1287        -0.0003        -0.0003        -0.0003        14.1287        -0.0003        -0.0003        -0.0003        14.1287
    830.00        13.9594        -0.0003        -0.0003        -0.0003        13.9594        -0.0003        -0.0003        -0.0003        13.9594
    840.00        13.7940        -0.0003        -0.0003        -0.0003        13.7940        -0.0003        -0.0003        -0.0003        13.7940
    850.00        13.6325        -0.0003        -0.0003        -0.0003        13.6325        -0.0003        -0.0003        -0.0003        13.6325
    860.00        13.4748        -0.0003        -0.0003        -0.0003        13.4748        -0.0003        -0.0003        -0.0003        13.4748
    870.00        13.3206        -0.0003        -0.0003        -0.0003        13.3206        -0.0003        -0.0003        -0.0003        13.3206
    880.00        13.1699        -0.0003        -0.0003        -0.0003        13.1699        -0.0003        -0.0003        -0.0003        13.1699
    890.00        13.0226        -0.0003        -0.0003        -0.0003        13.0226        -0.0003        -0.0003        -0.0003        13.0226
    900.00        12.8785        -0.0003        -0.0003        -0.0003        12.8785        -0.0003        -0.0003        -0.0003        12.8785
    910.00        12.7376        -0.0003        -0.0003        -0.0003        12.7376        -0.0003        -0.0003        -0.0003        12.7376
    920.00        12.5997        -0.0003        -0.0003        -0.0003        12.5997        -0.0003        -0.0003        -0.0003        12.5997
    930.00        12.4648        -0.0003        -0.0003        -0.0003        12.4648        -0.0003        -0.0003        -0.0003        12.4648
    940.00        12.3327        -0.0003        -0.0003        -0.0003        12.3327        -0.0003        -0.0003        -0.0003        12.3327
    950.00        12.2034        -0.0003        -0.0003        -0.0003        12.2034        -0.0003        -0.0003        -0.0003        12.2034
    960.00        12.0768        -0.0003        -0.0003        -0.0003        12.0768        -0.0003        -0.0003        -0.0003        12.0768
    970.00        11.9528        -0.0003        -0.0003        -0.0003        11.9528        -0.0003        -0.0003        -0.0003        11.9528
    980.00        11.8312        -0.0003        -0.0003        -0.0003        11.8312        -0.0003        -0.0003        -0.0003        11.8312
    990.00        11.7122        -0.0002        -0.0002        -0.0002        11.7122        -0.0002        -0.0002        -0.0002        11.7122
   1000.00        11.5955        -0.0002        -0.0002        -0.0002        11.5955        -0.0002        -0.0002        -0.0002        11.5955
