# k-axis, Phonon energy [meV], band-1, band-2, band-3, band-4, band-5, band-6, band-7
     1     0.000000  -26.631202   -17.164634   -10.640314     0.000000     0.000000     0.000000    12.612857    12.620594    16.584519    18.410373    22.054158    24.165053    25.950341    32.668234    33.320332    34.973010    35.604167    36.671833    37.794993    38.338831    39.055795    39.656131    41.494395    43.093179    43.866021    44.305344    44.846789    45.230756    46.938394    48.157427    48.725640    49.919964    50.521366    50.656802    50.949321   102.663697 
     2     0.008888  -26.589172   -17.152546   -10.615227    -0.352941     0.205384     0.736963    12.609336    12.626929    16.587383    18.405513    22.047525    24.156747    25.943596    32.663932    33.302429    34.953260    35.628207    36.660948    37.807738    38.343208    39.061957    39.662343    41.492436    43.083955    43.863764    44.306931    44.849418    45.229603    46.945796    48.155419    48.731616    49.920510    50.514027    50.656331    50.974241   102.618668 
     3     0.017775  -26.463047   -17.116059   -10.539630    -0.702106     0.417587     1.474019    12.597335    12.647497    16.595950    18.391640    22.027613    24.132794    25.923573    32.651212    33.249837    34.900010    35.692565    36.630027    37.844337    38.356139    39.079823    39.680853    41.486696    43.056593    43.857119    44.312188    44.856931    45.226255    46.967579    48.149827    48.748155    49.921960    50.494041    50.662220    51.040359   102.483691 
     4     0.026663  -26.252753   -17.054614   -10.412496    -1.043610     0.642957     2.211242    12.577808    12.681741    16.610221    18.370823    21.994474    24.095835    25.890843    32.630532    33.165431    34.824036    35.781236    36.583969    37.900612    38.376980    39.107706    39.711302    41.477521    43.012059    43.846531    44.322466    44.868337    45.221023    47.002467    48.141632    48.771575    49.923597    50.467063    50.684772    51.133691   102.259088 
     5     0.035551  -25.958102   -16.967209   -10.232053    -1.373349     0.886986     2.948655    12.552219    12.728816    16.630169    18.346250    21.948378    24.049876    25.846284    32.602673    33.052969    34.732910    35.877655    36.530781    37.971169    38.404875    39.143139    39.752960    41.465495    42.951966    43.832893    44.339191    44.882310    45.214403    47.048389    48.131937    48.797524    49.923870    50.438151    50.730769    51.245001   101.945419 
     6     0.044438  -25.578897   -16.852465    -9.995666    -1.686887     1.154054     3.686207    12.522426    12.787818    16.655758    18.322037    21.890070    23.999540    25.791039    32.568616    32.916194    34.630788    35.962395    36.484140    38.050342    38.438920    39.183519    39.804498    41.451374    42.878557    43.817669    44.363317    44.897435    45.206976    47.102544    48.121659    48.822555    49.920683    50.409016    50.805727    51.369067   101.543451 
     7     0.053326  -25.114827   -16.708561    -9.699646    -1.979327     1.447315     4.423735    12.490824    12.857631    16.686915    18.302808    21.821100    23.949403    25.726458    32.529550    32.758343    34.520074    36.007387    36.467837    38.132442    38.478346    39.226664    39.863971    41.436050    42.794511    43.802853    44.394895    44.912449    45.199401    47.161384    48.111530    48.845231    49.912253    50.379261    50.912920    51.502718   101.054176 
     8     0.062213  -24.565521   -16.533291    -9.338913    -2.245208     1.768700     5.160920    12.460238    12.937003    16.723538    18.293348    21.744009    23.903307    25.654078    32.486727    32.582043    34.402466    35.988803    36.502142    38.211764    38.522520    39.271235    39.928949    41.420354    42.702828    43.790802    44.433205    44.926285    45.192359    47.220746    48.102232    48.866333    49.897834    50.348129    51.051778    51.643869   100.478810 
     9     0.071101  -23.930545   -16.324025    -8.906434    -2.478386     2.119005     5.897217    12.433917    13.024570    16.765567    18.298134    21.662443    23.863956    25.575648    32.389391    32.441636    34.279391    35.915940    36.574769    38.282867    38.570587    39.316922    39.996903    41.404820    42.606756    43.783847    44.477007    44.938076    45.186457    47.275930    48.094656    48.888141    49.877662    50.315299    51.218060    51.791182    99.818790 
    10     0.079989  -23.209378   -16.077739    -8.392252    -2.671908     2.498032     6.631766    12.415370    13.118968    16.812928    18.321008    21.581000    23.832675    25.493251    32.182270    32.395602    34.152064    35.810768    36.661159    38.341670    38.620464    39.364220    40.065836    41.389421    42.509804    43.784045    44.524789    44.947238    45.182143    47.321951    48.089970    48.913457    49.852569    50.280982    51.405108    51.944025    99.075778 
    11     0.088876  -22.401388   -15.791097    -7.781706    -2.817793     2.904752     7.363254    12.408266    13.218921    16.865718    18.364798    21.505062    23.809491    25.409317    31.962205    32.350263    34.021513    35.686019    36.746370    38.386650    38.667899    39.414221    40.134669    41.373105    42.415963    43.792910    44.575013    44.953524    45.179564    47.354211    48.089449    48.944564    49.823458    50.245871    51.604865    52.102558    98.251658 
    12     0.097764  -21.505819   -15.460405    -7.051950    -2.906500     3.337494     8.089694    12.416423    13.323387    16.924187    18.430966    21.440531    23.793225    25.326833    31.730722    32.307217    33.888631    35.547496    36.822668    38.418947    38.706829    39.468178    40.203354    41.353579    42.329760    43.811309    44.626341    44.957082    45.178448    47.369361    48.093999    48.982490    49.791273    50.211131    51.808490    52.267947    97.348550 
    13     0.106652  -20.521752   -15.081696    -6.164315    -2.925287     3.794146     8.808030    12.443984    13.431683    16.988793    18.519475    21.393604    23.781695    25.249345    31.489358    32.268138    33.754150    35.398075    36.885488    38.441350    38.731104    39.527142    40.272461    41.327506    42.256227    43.839440    44.677606    44.958520    45.178101    47.366088    48.103608    49.026502    49.756807    50.178388    52.006895    52.442052    96.368799 
    14     0.115539  -19.447999   -14.650741    -5.045238    -2.850714     4.272402     9.513399    12.495932    13.543600    17.060268    18.628603    21.370718    23.771814    25.181107    31.239662    32.234775    33.618752    35.239468    36.931708    38.457282    38.736212    39.591587    40.342348    41.291514    42.200213    43.876894    44.727992    44.958694    45.177531    47.345321    48.117246    49.074024    49.720877    50.149798    52.192158    52.626237    95.314993 
    15     0.124427  -18.282921   -14.162942    -3.565449    -2.552183     4.770169    10.197579    12.579532    13.659608    17.139466    18.755000    21.378318    23.759899    25.126853    30.983271    32.208851    33.483167    35.072938    36.959058    38.470139    38.720082    39.661004    40.412298    41.244166    42.165040    43.922742    44.776828    44.958694    45.175634    47.309528    48.133264    49.120802    49.684303    50.128052    52.359581    52.819224    94.189974 
    16     0.133315  -17.024066   -13.613289    -2.615897     1.826586     5.286609    10.845645    12.707491    13.781121    17.227393    18.894068    21.422566    23.742207    25.091395    30.721872    32.191965    33.348401    34.899639    36.966063    38.482772    38.683062    39.734028    40.479520    41.188115    42.151390    43.975694    44.823543    44.959686    45.171406    47.261907    48.149939    49.161529    49.647977    50.116274    52.508394    53.016526    92.996790 
    17     0.142202  -15.667526   -12.996042    -2.114520     4.234355     5.826250    11.430042    12.903479    13.910990    17.325077    19.040563    21.508683    23.715750    25.078724    30.457274    32.185208    33.216089    34.720773    36.952264    38.496856    38.627556    39.808453    40.538063    41.131580    42.157329    44.034212    44.867197    44.963194    45.164166    47.205645    48.165808    49.190764    49.612841    50.117464    52.640024    53.212055    91.738790 
    18     0.151090  -14.206732   -12.304200    -1.301364     5.722624     6.426480    11.910074    13.201254    14.055228    17.433584    19.189699    21.639730    23.679325    25.091023    30.191399    32.188283    33.089369    34.537753    36.918256    38.509242    38.560384    39.881304    40.577910    41.088869    42.179533    44.096611    44.905085    44.971935    45.154000    47.143680    48.179657    49.204327    49.579838    50.133582    52.756193    53.400145    90.419544 
    19     0.159977  -12.630562   -11.527845     1.301960     6.670858     7.278537    12.265064    13.605330    14.229482    17.553894    19.338376    21.815099    23.634221    25.128043    29.926292    32.197680    32.974477    34.352416    36.865614    38.461286    38.542816    39.948439    40.588771    41.076359    42.214483    44.161192    44.931096    44.990705    45.142569    47.078640    48.190480    49.200570    49.549636    50.164602    52.858092    53.576296    89.042920 
    20     0.168865  -10.936846   -10.633275     2.393134     7.283893     8.299541    12.527968    14.029936    14.486840    17.686875    19.486098    22.029089    23.584567    25.187120    29.664236    32.203049    32.883885    34.167450    36.796706    38.367880    38.561214    40.003709    40.573348    41.099854    42.259178    44.226208    44.942019    45.017807    45.135229    47.012856    48.197337    49.180572    49.522633    50.208491    52.946452    53.737197    87.613071 
    21     0.177753   -9.709867    -8.967762     3.227002     7.835860     9.259841    12.745590    14.343940    14.913145    17.833209    19.635122    22.269449    23.537901    25.263826    29.407672    32.184588    32.837529    33.987394    36.714346    38.264840    38.579613    40.038622    40.552432    41.150090    42.311225    44.290008    44.938981    45.041748    45.142891    46.948424    48.199432    49.147209    49.499052    50.261963    53.021659    53.880580    86.134448 
    22     0.186640   -8.590256    -6.735812     3.973823     8.370833    10.132165    12.945793    14.585615    15.445180    17.993143    19.789886    22.514557    23.508269    25.352484    29.159352    32.123590    32.849009    33.821496    36.621584    38.156072    38.592594    40.045986    40.549184    41.214994    42.368752    44.350981    44.918847    45.059973    45.171890    46.887166    48.196047    49.103730    49.479178    50.321659    53.084008    54.004981    84.611812 
    23     0.195528   -7.293117    -3.691170     4.696015     8.895835    10.913697    13.141124    14.826929    16.002198    18.166343    19.956131    22.726613    23.523978    25.446721    28.922278    32.020873    32.898180    33.691887    36.521607    38.043685    38.595433    40.029088    40.573112    41.286853    42.430320    44.407528    44.881082    45.080827    45.215060    46.830730    48.186699    49.052947    49.463284    50.384803    53.133774    54.109620    83.050272 
    24     0.204416   -5.709782     3.640358     5.517037     9.413046    11.601695    13.336491    15.091143    16.559029    18.351569    20.140179    22.854200    23.626224    25.539843    28.699795    31.889751    32.923013    33.647812    36.417761    37.929214    38.583320    40.002742    40.619295    41.361588    42.494777    44.457678    44.830139    45.108090    45.265284    46.780481    48.171164    48.996983    49.451568    50.449495    53.171365    54.194324    81.455306 
    25     0.213303   -3.500739     5.424861     6.829732     9.924517    12.195273    13.533235    15.383513    17.108347    18.546590    20.347994    22.884005    23.818628    25.625377    28.495390    31.741298    32.862498    33.736396    36.313829    37.813726    38.552213    39.983339    40.679313    41.437253    42.561231    44.497972    44.772240    45.141614    45.319042    46.737559    48.149629    48.937311    49.443968    50.514709    53.197314    54.259438    79.832755 
    26     0.222191    2.756455     6.182273     8.205595    10.433011    12.699383    13.731157    15.699178    17.648094    18.748628    20.584077    22.852837    24.055827    25.697806    28.312606    31.581872    32.730522    33.930189    36.214471    37.697942    38.500067    39.982422    40.747378    41.512967    42.628948    44.519532    44.718173    45.180792    45.374114    46.702857    48.122663    48.874949    49.440013    50.580170    53.212328    54.305744    78.188917 
    27     0.231079    5.165805     6.781799     9.284793    10.940499    13.125911    13.929785    16.025903    18.177266    18.955724    20.850027    22.790326    24.301109    25.753374    28.154631    31.415044    32.565343    34.174827    36.126123    37.582181    38.427688    40.006139    40.820514    41.588446    42.697423    44.502894    44.688827    45.225176    45.428504    46.677019    48.091259    48.810566    49.438885    50.646239    53.217312    54.334384    76.530536 
    28     0.239966    6.684361     7.333127    10.126326    11.443637    13.490400    14.129331    16.348610    18.691188    19.170916    21.143128    22.708536    24.536535    25.790927    28.023844    31.243010    32.386750    34.429382    36.058430    37.466434    38.338497    40.056797    40.897518    41.663739    42.766232    44.442528    44.690934    45.274372    45.480240    46.660530    48.056694    48.744584    49.439356    50.713796    53.213319    54.346844    74.864852 
    29     0.248854    7.755517     7.929085    10.803591    11.929778    13.807603    14.330898    16.654196    19.158778    19.425174    21.455917    22.611485    24.753115    25.812624    27.921201    31.067318    32.203136    34.658076    36.025761    37.350450    38.237378    40.134644    40.978130    41.739119    42.835127    44.358693    44.705390    45.327906    45.527564    46.653649    48.020529    48.677276    49.439963    50.784117    53.201579    54.344810    73.199615 
    30     0.257741    8.302090     8.785977    11.377335    12.381192    14.088839    14.535824    16.933895    19.476787    19.822567    21.776145    22.501366    24.944652    25.824600    27.845834    30.889195    32.018504    34.826912    36.044581    37.233785    38.129367    40.239098    41.062536    41.815020    42.903924    44.264455    44.720231    45.384863    45.569097    46.656414    47.984376    48.608851    49.439120    50.858617    53.183440    54.330168    71.543192 
    31     0.266629    8.769386     9.519917    11.891139    12.784446    14.342155    14.744507    17.183244    19.702728    20.306486    22.079722    22.389871    25.104301    25.837568    27.794927    30.709858    31.835064    34.916673    36.119379    37.116066    38.018554    40.369091    41.151107    41.891962    42.972472    44.165048    44.731290    45.443493    45.604530    46.668700    47.949885    48.539509    49.435302    50.938733    53.160318    54.304877    69.904486 
    32     0.275517    9.210333    10.114944    12.369972    13.134602    14.573142    14.955546    17.400990    19.912316    20.801042    22.176836    22.455208    25.223446    25.865972    27.763945    30.530633    31.654264    34.936535    36.229646    36.997182    37.907480    40.522466    41.244104    41.970615    43.040698    44.063124    44.736956    45.500139    45.635600    46.690174    47.918568    48.469497    49.427206    51.025643    53.133613    54.270980    68.293081 
    33     0.284404    9.628650    10.596196    12.823301    13.434051    14.785012    15.166151    17.587952    20.117726    21.291284    22.041908    22.714549    25.297127    25.921416    27.747133    30.353267    31.477121    34.911479    36.343572    36.877615    37.796630    40.695133    41.341627    42.051797    43.108491    43.960419    44.736559    45.547425    45.667959    46.720524    47.891738    48.399176    49.413915    51.120054    53.104701    54.230464    66.719118 
    34     0.293292   10.025464    10.987816    13.249433    13.691111    14.978036    15.373446    17.746212    20.317594    21.762594    21.892674    22.956062    25.333602    26.002115    27.737934    30.180141    31.304429    34.862705    36.438007    36.758867    37.684366    40.880434    41.443588    42.136351    43.175762    43.858260    44.729777    45.575990    45.709132    46.759553    47.870426    48.329065    49.394959    51.222064    53.074809    54.185273    65.193308 
    35     0.302180   10.401326    11.310875    13.635048    13.923611    15.149996    15.575124    17.878573    20.502039    21.717961    22.249872    23.157567    25.351864    26.094641    27.729602    30.014467    31.136784    34.802959    36.500258    36.645698    37.567353    41.069292    41.549913    42.225059    43.242414    43.757774    44.716474    45.585028    45.757956    46.807508    47.855350    48.259884    49.370336    51.331080    53.044955    54.137280    63.726848 
    36     0.311067   10.756566    11.582334    13.939257    14.176629    15.297607    15.769227    17.988122    20.646117    21.592431    22.703106    23.313695    25.369742    26.184787    27.715630    29.860323    30.974667    34.739159    36.494220    36.575637    37.441526    41.251258    41.660826    42.318217    43.308297    43.660028    44.696600    45.580900    45.805626    46.865048    47.846907    48.192601    49.340420    51.445885    53.015906    54.088234    62.331181 
    37     0.319955   11.091405    11.815083    14.137030    14.479376    15.417992    15.953449    18.077933    20.701920    21.547203    23.129758    23.431972    25.398270    26.262026    27.690363    29.722370    30.818527    34.674875    36.400602    36.574088    37.303214    41.416399    41.776623    42.415083    43.373126    43.566312    44.670155    45.568775    45.844370    46.933026    47.845159    48.128379    49.305829    51.564633    52.988110    54.039733    61.017749 
    38     0.328842   11.405979    12.018655    14.278702    14.785433    15.509402    16.124888    18.151106    20.638988    21.615876    23.412061    23.630129    25.441403    26.318921    27.649821    29.605085    30.668908    34.612055    36.301381    36.566376    37.149938    41.558220    41.896636    42.513139    43.433690    43.480976    44.637189    45.551938    45.868695    47.011803    47.849821    48.068745    49.267346    51.685092    52.961665    53.993240    59.797637 
    39     0.337730   11.700355    12.200073    14.392417    15.070067    15.571057    16.280000    18.210864    20.495469    21.762730    23.462731    24.000073    25.497764    26.350424    27.592530    29.511666    30.526591    34.551887    36.210020    36.545721    36.980916    41.675889    42.017863    42.607649    43.391289    43.504297    44.597825    45.532634    45.875352    47.100424    47.859813    48.015966    49.225751    51.804683    52.936249    53.950046    58.680986 
    40     0.346618   11.974495    12.364568    14.487051    15.327300    15.602982    16.414816    18.260878    20.319132    21.942315    23.460959    24.368864    25.563312    26.353784    27.519816    29.443180    30.392581    34.495551    36.129136    36.514664    36.797041    41.773238    42.135954    42.691620    43.318736    43.565878    44.552337    45.512587    45.863537    47.195925    47.870711    47.975772    49.181738    51.920704    52.911106    53.911215    57.676513 
    41     0.355505   12.228232    12.516079    14.566410    15.554456    15.607098    16.525257    18.305511    20.135307    22.131149    23.438221    24.710206    25.634117    26.329099    27.435336    29.398299    30.268155    34.444644    36.059285    36.475784    36.601041    41.855450    42.247462    42.756251    43.258420    43.627037    44.501319    45.493097    45.834836    47.293374    47.867190    47.965060    49.135878    52.030426    52.884996    53.877567    56.790899 
    42     0.364393   12.461205    12.657577    14.632653    15.578471    15.757784    16.607704    18.349635    19.956242    22.317987    23.405701    25.014527    25.708580    26.279991    27.343516    29.374048    30.154664    34.401512    35.998535    36.397788    36.431709    41.927048    42.350688    42.792391    43.215758    43.686870    44.445875    45.475182    45.792707    47.386383    47.841960    47.992894    49.088579    52.131296    52.856096    53.849610    56.028335 
    43     0.373281   12.672777    12.791252    14.687266    15.526412    15.930748    16.660110    18.398024    19.788113    22.496320    23.370515    25.270533    25.789526    26.213922    27.248275    29.366895    30.053198    34.369240    35.937190    36.201552    36.383010    41.991555    42.445198    42.795305    43.192289    43.744843    44.387741    45.459523    45.741776    47.468619    47.810469    48.045275    49.040004    52.221083    52.822014    53.827492    55.390334 
    44     0.382168   12.861995    12.918443    14.731527    15.450698    16.077987    16.683232    18.454212    19.633696    22.661498    23.337202    25.462913    25.883106    26.143749    27.152438    29.373714    29.964143    34.351548    35.836407    36.053669    36.332116    42.051698    42.530756    42.770447    43.180920    43.800373    44.329322    45.446654    45.686928    47.535755    47.779896    48.114729    48.990102    52.298099    52.780071    53.810990    54.875470 
    45     0.391056   13.027211    13.039671    14.766811    15.356299    16.200863    16.681125    18.519661    19.493450    22.809605    23.308252    25.583633    25.964834    26.108886    27.057978    29.392162    29.886904    34.352354    35.661731    35.992311    36.280119    42.109547    42.604165    42.732509    43.169960    43.852879    44.273270    45.436947    45.632575    47.586933    47.752100    48.196506    48.938526    52.361416    52.728334    53.799522    54.478820 
    46     0.399944   13.152270    13.168052    14.794732    15.250098    16.301089    16.660606    18.593814    19.366308    22.937267    23.284535    25.648635    25.945109    26.192350    26.966258    29.420504    29.819694    34.375352    35.459098    35.974967    36.228320    42.166701    42.632556    42.724227    43.150867    43.901839    44.221819    45.430785    45.582214    47.623979    47.727886    48.285276    48.884682    52.410970    52.667795    53.792219    54.190679 
    47     0.408831   13.254764    13.280242    14.817532    15.141243    16.380672    16.629586    18.674897    19.250300    23.041720    23.265628    25.682990    25.891165    26.312635    26.877872    29.457226    29.759911    34.423493    35.256763    35.976864    36.177959    42.224278    42.589560    42.778208    43.120244    43.946980    44.176082    45.428578    45.538189    47.649717    47.707938    48.375868    48.827725    52.447458    52.604330    53.788054    53.995646 
    48     0.417719   13.339851    13.362292    14.838509    15.040609    16.442091    16.595021    18.760964    19.143070    23.121390    23.249883    25.705530    25.840147    26.425593    26.792351    29.500520    29.704765    34.498625    35.064941    35.991171    36.130301    42.282970    42.530595    42.842690    43.078376    43.988364    44.135628    45.430872    45.501763    47.666529    47.692974    48.464377    48.766715    52.472167    52.547968    53.786020    53.874592 
    49     0.426606   13.399027    13.411301    14.863032    14.958646    16.488956    16.561000    18.850576    19.042349    23.176846    23.234100    25.728268    25.795638    26.526848    26.707896    29.548327    29.651974    34.601268    34.889596    36.015087    36.086586    42.343063    42.468692    42.906688    43.027482    44.026488    44.098831    45.438385    45.473310    47.676087    47.683613    48.548312    48.700683    52.486487    52.509039    53.785314    53.809651 
    50     0.435494   13.424406    13.424455    14.900127    14.900127    16.526894    16.526906    18.944739    18.944776    23.212341    23.212403    25.757899    25.757911    26.620229    26.620229    29.599518    29.599518    34.732848    34.732861    36.047483    36.047495    42.405462    42.405462    42.969199    42.969199    44.062938    44.062963    45.452233    45.452233    47.679794    47.679794    48.627634    48.627646    52.493033    52.493070    53.787037    53.787049 
    51     0.435494   13.424480    13.424604    14.900152    14.900264    16.526918    16.527005    18.944764    18.944900    23.212354    23.212391    25.757899    25.757961    26.620229    26.620291    29.599531    29.599543    34.732836    34.732861    36.047495    36.047507    42.405413    42.405462    42.969162    42.969199    44.062889    44.062951    45.452209    45.452221    47.679757    47.679794    48.627609    48.627634    52.493033    52.493058    53.787000    53.787037 
    52     0.450888   13.379723    13.399560    14.864557    14.952732    16.501242    16.570311    18.842890    19.033608    23.146731    23.204618    25.738608    25.806660    26.529116    26.707288    29.543926    29.646978    34.590866    34.876231    36.007859    36.076643    42.325557    42.452599    42.874144    42.991888    44.024393    44.095322    45.450609    45.486055    47.671364    47.677736    48.577968    48.724425    52.481267    52.529409    53.780627    53.791736 
    53     0.466282   13.260083    13.319866    14.856238    15.005944    16.494882    16.625730    18.733142    19.106595    23.006857    23.136577    25.744063    25.880428    26.439057    26.783685    29.485159    29.683676    34.462733    35.006559    35.969983    36.090838    42.210987    42.468729    42.724413    42.937708    43.984385    44.121172    45.473434    45.547983    47.639005    47.680724    48.588184    48.849459    52.449268    52.625617    53.780131    53.793794 
    54     0.481676   13.076133    13.184517    14.874463    15.048878    16.505420    16.685253    18.619316    19.163006    22.802389    23.017631    25.767644    25.966867    26.350188    26.844360    29.429765    29.708497    34.353085    35.115711    35.940637    36.100372    42.056322    42.436556    42.554734    42.814274    43.945740    44.143575    45.507888    45.628583    47.581243    47.698900    48.655939    48.992383    52.397122    52.755201    53.773771    53.828335 
    55     0.497069   12.838414    12.990786    14.906611    15.083990    16.528530    16.735626    18.509743    19.198266    22.553214    22.855267    25.802482    26.046611    26.263836    26.882906    29.389670    29.719655    34.265592    35.201505    35.909691    36.132136    41.857421    42.258571    42.477680    42.640280    43.906352    44.164528    45.541499    45.716943    47.511392    47.734061    48.767322    49.145870    52.326218    52.868110    53.754021    53.946091 
    56     0.512463   12.545722    12.741759    14.920460    15.137140    16.558670    16.759802    18.415134    19.203820    22.283446    22.659949    25.836676    26.090946    26.191692    26.896506    29.377854    29.718056    34.201408    35.272124    35.866782    36.205074    41.611891    42.008627    42.406429    42.463795    43.860157    44.184997    45.565353    45.804510    47.445559    47.783913    48.906093    49.305098    52.238539    52.916610    53.724377    54.181702 
    57     0.527857   12.173518    12.458081    14.888585    15.230509    16.586701    16.745148    18.345209    19.168300    22.014422    22.451997    25.844821    26.039916    26.186770    26.892403    29.395844    29.715328    34.160978    35.330382    35.831683    36.309180    41.320439    41.738623    42.202904    42.400875    43.800969    44.205453    45.575197    45.885705    47.396116    47.844638    49.058936    49.466433    52.136913    52.896340    53.685634    54.526788 
    58     0.543251   11.684185    12.170278    14.814085    15.353398    16.571353    16.720092    18.300799    19.085593    21.751411    22.270279    25.784517    25.933120    26.218832    26.891398    29.409221    29.752212    34.145431    35.353443    35.849536    36.426055    40.987391    41.461764    41.981227    42.347762    43.724461    44.226245    45.571043    45.957316    47.370018    47.912703    49.215770    49.626727    52.025194    52.830358    53.638372    54.944217 
    59     0.558645   11.054462    11.895135    14.702788    15.487644    16.446629    16.751979    18.263804    18.971705    21.480527    22.164549    25.613760    25.819145    26.257179    26.919393    29.366225    29.877494    34.156391    35.321294    35.949675    36.540687    40.620001    41.188115    41.763221    42.292107    43.629008    44.247929    45.555893    46.017793    47.368964    47.985405    49.368910    49.782830    51.908269    52.739146    53.583065    55.398975 
    60     0.574039   10.273781    11.641879    14.555202    15.615083    16.247443    16.819176    18.193532    18.877170    21.198001    22.158090    25.340024    25.706596    26.279408    26.994029    29.268789    30.079978    34.194812    35.255920    36.107873    36.641086    40.227505    40.927187    41.555902    42.235795    43.515988    44.271175    45.533986    46.066852    47.390512    48.060847    49.512479    49.931234    51.791926    52.636019    53.519996    55.863677 
    61     0.589432    9.340305    11.420673    14.369468    15.712333    16.011682    16.904202    18.062225    18.853081    20.922183    22.238379    24.999798    25.587848    26.269750    27.117550    29.135474    30.330070    34.260236    35.184644    36.286256    36.716826    39.820640    40.688723    41.366287    42.181827    43.389541    44.296665    45.508967    46.105087    47.429851    48.137529    49.641976    50.068046    51.682476    52.530165    53.449303    56.316216 
    62     0.604826    8.264147    11.243528    14.144643    15.672956    15.851736    16.988211    17.911812    18.893548    20.675463    22.382271    24.623779    25.461314    26.226543    27.278700    28.976891    30.607240    34.350630    35.122207    36.452054    36.759413    39.412597    40.482755    41.202075    42.133872    43.256027    44.324970    45.483104    46.133764    47.481290    48.214173    49.753819    50.189112    51.586255    52.428501    53.371208    56.738034 
    63     0.620220    7.072750    11.123911    13.885041    15.422963    15.848140    17.030401    17.827568    18.964464    20.473375    22.570175    24.239231    25.327812    26.154238    27.460863    28.801360    30.896014    34.462609    35.074996    36.568546    36.768811    39.021453    40.318321    41.070755    42.096182    43.123269    44.356449    45.457217    46.154518    47.539189    48.289615    49.844932    50.290441    51.509041    52.336136    53.286542    57.113197 
    64     0.635614    5.822255    11.076223    13.604400    15.152042    15.817071    17.001588    17.865642    19.039026    20.322963    22.786855    23.873353    25.189773    26.057187    27.644936    28.620448    31.182607    34.590916    35.043840    36.580931    36.768377    38.672809    40.200986    40.978130    42.073047    43.000355    44.391200    45.431256    46.169210    47.598439    48.362751    49.912451    50.368970    51.455209    52.256020    53.197326    57.428218 
    65     0.651008    4.628275    11.114715    13.326412    14.885733    15.739757    16.940578    17.991023    19.101202    20.224225    23.010589    23.563205    25.051907    25.938414    27.800792    28.459163    31.453255    34.726451    35.024102    36.475871    36.756028    38.396904    40.130342    40.926963    42.067059    42.897873    44.429113    45.404923    46.179636    47.654738    48.432539    49.953637    50.423397    51.426929    52.187893    53.107788    57.671777 
    66     0.666402    3.737790    11.250947    13.080064    14.626057    15.629365    16.893391    18.132298    19.149752    20.172215    23.109674    23.455578    24.922199    25.800176    27.862645    28.380311    31.693491    34.845509    35.009100    36.300984    36.711259    38.211901    40.099818    40.916983    42.075973    42.829040    44.469865    45.378106    46.187385    47.704714    48.497839    49.966097    50.454430    51.423730    52.127416    53.025341    57.834847 
    67     0.681795    3.556354    11.488172    12.894118    14.373398    15.511535    16.872128    18.222543    19.204638    20.159805    22.970816    23.673262    24.813146    25.645213    27.782976    28.429879    31.888078    34.835442    35.056622    36.113415    36.668982    38.107472    40.099186    40.946589    42.090751    42.809315    44.513147    45.351103    46.193683    47.746161    48.557275    49.948170    50.463852    51.442823    52.066157    52.961342    57.910736 
    68     0.697189    4.250533    11.808734    12.798034    14.132220    15.415165    16.872215    18.210418    19.288784    20.182865    22.841381    23.965731    24.743135    25.479638    27.639791    28.529199    32.021096    34.633652    35.176188    35.971954    36.683103    38.057806    40.118391    41.014444    42.101190    42.849596    44.558896    45.324596    46.199411    47.777987    48.609049    49.899483    50.452880    51.478988    51.995266    52.929653    57.895288 
    69     0.712583    5.486783    12.145687    12.839183    13.914052    15.369441    16.887018    18.095922    19.383368    20.245686    22.761116    24.267114    24.737159    25.322493    27.496148    28.614832    32.075498    34.307411    35.316100    35.890797    36.779200    38.044453    40.150130    41.119442    42.107848    42.945854    44.607719    45.299341    46.205102    47.800167    48.650756    49.821214    50.421451    51.519529    51.916873    52.942423    57.787103 
    70     0.727977    6.897431    12.390890    13.062830    13.742216    15.405172    16.912893    17.927607    19.439432    20.354355    22.714785    24.505912    24.830938    25.241609    27.376024    28.662304    32.030146    33.934950    35.468645    35.866410    36.934126    38.063583    40.190175    41.259515    42.123532    43.080570    44.661253    45.275624    46.211202    47.813234    48.679011    49.716104    50.369094    51.524265    51.868508    53.007116    57.587892 
    71     0.743371    8.239779    12.574126    13.318031    13.674920    15.538587    16.950769    17.782042    19.430257    20.497390    22.675892    24.529369    25.081551    25.375470    27.289635    28.661151    31.857653    33.599175    35.613813    35.919399    37.101238    38.122313    40.236023    41.431004    42.164743    43.234368    44.722004    45.252737    46.218306    47.817487    48.689078    49.588268    50.296814    51.438347    51.908740    53.129658    57.302924 
    72     0.758765    9.330293    12.782140    13.421430    13.768091    15.710076    17.003956    17.773748    19.362775    20.647232    22.614683    24.401806    25.477617    25.708654    27.240836    28.609240    31.541194    33.364828    35.733503    36.064691    37.244286    38.226195    40.285912    41.628752    42.245429    43.393508    44.792325    45.228921    46.227480    47.811647    48.674226    49.442815    50.208887    51.285889    52.019367    53.321380    56.941534 
    73     0.774158   10.050341    12.968246    13.562346    13.860319    15.798275    17.073187    18.007698    19.261285    20.781900    22.498762    24.262737    25.938736    26.188531    27.233819    28.513751    31.107276    33.250928    35.852834    36.261782    37.359278    38.361966    40.339286    41.846597    42.372558    43.552909    44.871412    45.203232    46.240511    47.790893    48.625638    49.284877    50.113782    51.107594    52.166110    53.605270    56.517696 
    74     0.789552   10.421565    13.028017    13.795354    13.879846    15.808739    17.159638    18.433421    19.165535    20.897313    22.297419    24.170459    26.356970    26.741680    27.338557    28.394495    30.619353    33.242857    35.993452    36.461092    37.473079    38.498369    40.397395    42.078229    42.540761    43.716600    44.947920    45.183420    46.259728    47.745169    48.533769    49.117219    50.023264    50.926508    52.333607    54.020640    56.050503 
    75     0.804946   10.567272    12.967750    13.823919    13.939146    15.833263    17.222905    18.912802    19.140541    21.011548    21.997833    24.135273    26.699341    26.949210    27.836969    28.293116    30.155556    33.324039    36.155977    36.627659    37.620367    38.605004    40.461803    42.316581    42.728963    43.894202    44.981791    45.207683    46.287387    47.659784    48.391948    48.937621    49.948542    50.760586    52.513576    54.624311    55.564687 
    76     0.820340   10.593343    12.757133    13.711580    13.973947    15.875837    17.166965    19.187008    19.394253    21.165729    21.616843    24.136327    26.669896    27.171469    28.098505    28.594673    29.817785    33.481295    36.334236    36.741957    37.817991    38.665171    40.530773    42.549725    42.907147    44.089557    44.950511    45.304598    46.324805    47.521249    48.198155    48.741113    49.894648    50.623960    52.700699    55.076218    55.498804 
    77     0.835734   10.554520    12.366994    13.571062    13.977183    15.898650    16.945648    19.338636    19.714432    21.102425    21.504195    24.146704    26.349370    27.407304    28.023658    29.120249    29.734235    33.695979    36.524198    36.799421    38.052252    38.680309    40.597834    42.754044    43.054473    44.285693    44.898055    45.448043    46.371272    47.326365    47.954398    48.527483    49.859065    50.521329    52.890959    54.637639    56.688020 
    78     0.851128   10.465343    11.838544    13.388823    13.988502    15.885508    16.591537    19.479043    19.842838    20.607522    21.916118    24.151428    25.875655    27.389761    28.104753    29.443390    29.939521    33.939054    36.723112    36.797363    38.276891    38.682392    40.655670    42.890335    43.173754    44.447723    44.860402    45.621726    46.423815    47.087480    47.672492    48.303042    49.837022    50.445627    53.079929    54.254702    58.252263 
    79     0.866521   10.294263    11.253242    13.147434    14.002351    15.818571    16.158462    19.559940    19.758482    20.108750    22.387825    24.156300    25.286626    27.202563    28.313573    29.711472    30.211198    34.177740    36.693741    36.954694    38.381232    38.776605    40.702597    42.929042    43.270991    44.551841    44.854489    45.797617    46.479904    46.831213    47.386507    48.074770    49.825566    50.385125    53.261634    53.946426    60.186847 
    80     0.881915    9.913622    10.758362    12.844985    13.984163    15.548840    15.818249    19.325717    19.588332    19.786129    22.766348    24.195825    24.619663    27.021218    28.521351    30.015322    30.423700    34.386770    36.482677    37.192512    38.349518    38.982672    40.746511    42.884471    43.330155    44.600342    44.866428    45.912038    46.548589    46.598813    47.153970    47.848197    49.822950    50.331776    53.427582    53.717831    62.450487 
    81     0.897309    9.228786    10.442816    12.483447    13.859749    15.058983    15.619521    18.778928    19.435390    19.572264    22.911020    23.929640    24.318082    26.899209    28.705213    30.348667    30.573170    34.548230    36.136289    37.438984    38.291905    39.196153    40.802909    42.788164    43.343396    44.600354    44.861146    45.883857    46.452169    46.656005    47.018113    47.632806    49.827066    50.282631    53.526257    53.605927    64.978426 
    82     0.912703    8.351753    10.167126    12.059212    13.487809    14.631946    15.352381    18.249360    19.070480    19.410110    22.665528    23.384872    24.498770    26.847547    28.875748    30.611121    30.751590    34.621775    35.703289    37.679196    38.249566    39.375180    40.886868    42.665746    43.320757    44.553205    44.822117    45.717749    46.436511    46.779452    46.966649    47.452428    49.835360    50.236622    53.443129    53.704255    67.699415 
    83     0.928097    7.335526     9.824323    11.552770    12.803229    14.246864    15.027975    17.786952    18.594595    19.197745    21.996408    23.112079    24.651576    26.863503    29.037914    30.642066    31.108900    34.451116    35.396860    37.897215    38.233461    39.506810    41.002790    42.532343    43.279719    44.474019    44.758020    45.516058    46.452814    46.865519    46.994197    47.355996    49.845316    50.191952    53.380928    53.786603    70.546108 
    84     0.943491    6.143730     9.345925    10.909397    11.903493    13.629952    14.787008    17.368507    18.062882    18.931238    21.190624    22.910810    24.715314    26.941883    29.149359    30.607377    31.489519    33.971772    35.382156    38.067005    38.261790    39.590645    41.140060    42.395407    43.236202    44.391845    44.674197    45.350458    46.357312    46.937613    47.081479    47.387598    49.855296    50.145657    53.337064    53.832004    73.459229 
    85     0.958884    4.604467     8.640616    10.013360    10.902567    12.681542    14.667627    16.888122    17.569479    18.612411    20.381357    22.717327    24.669640    27.068417    29.086935    30.612844    31.872518    33.468748    35.495226    38.147245    38.373707    39.632848    41.275595    42.262947    43.197037    44.306361    44.600689    45.241529    46.162106    46.942981    47.253068    47.516649    49.864607    50.094640    53.291476    53.838662    76.387934 
    86     0.974278    1.604955     7.515908     8.776764     9.882461    11.461221    14.620354    16.294605    17.142380    18.220721    19.646726    22.527414    24.524633    27.183830    28.795099    30.769245    32.244446    33.118195    35.645688    38.182802    38.526909    39.642332    41.374717    42.152394    43.159570    44.187985    44.598805    45.170365    45.935545    46.900407    47.445385    47.704714    49.873125    50.037051    53.223523    53.808399    79.288905 
    87     0.989672   -4.752080     5.714373     7.216475     8.783032    10.076835    14.615506    15.683520    16.668181    17.705509    19.072662    22.341122    24.310742    27.119906    28.548106    31.049601    32.553069    32.991028    35.804035    38.216810    38.682095    39.628806    41.393277    42.090788    43.118595    44.057706    44.668060    45.100291    45.726006    46.831213    47.611692    47.938194    49.879125    49.974615    53.115673    53.744351    82.124972 
    88     1.005066   -7.815141     2.884632     5.033088     7.437833     8.772357    14.582391    15.187414    16.033379    17.059995    18.697052    22.160594    24.071101    26.775564    28.629672    31.383938    32.663783    33.183011    35.952725    38.258331    38.832247    39.600948    41.312144    42.079072    43.073913    43.957865    44.760127    44.996446    45.583131    46.738737    47.753550    48.193605    49.863529    49.928283    52.957697    53.647993    84.863926 
    89     1.020460  -10.699602    -4.260723    -0.814673     5.831027     7.703233    14.322070    14.905781    15.267728    16.388197    18.469896    21.994560    23.853591    26.371699    28.928588    31.728652    32.706160    33.527849    36.077535    38.308332    38.975010    39.564770    41.160666    42.069365    43.036954    43.909910    44.737761    44.941585    45.536354    46.623460    47.879278    48.450256    49.798761    49.929412    52.748977    53.517504    87.477660 
    90     1.035854  -13.388737    -7.146893    -4.840813     4.277918     6.751910    13.822766    14.008314    15.194084    15.787576    18.332836    21.856856    23.693793    26.059108    29.315951    32.053603    32.793875    33.894743    36.167520    38.363937    39.107111    39.521886    40.973729    42.016834    43.028164    43.911360    44.543386    44.995826    45.570895    46.485979    47.991976    48.693257    49.721695    49.947686    52.497174    53.349561    89.941427 
    91     1.051247  -15.858840    -9.338076    -6.673346     2.944006     5.834388    12.539151    13.612273    15.093809    15.489528    18.253079    21.758242    23.603536    25.859314    29.741971    32.329508    32.951801    34.259877    36.216381    38.418873    39.222920    39.468884    40.773166    41.912890    43.058812    43.937929    44.336599    45.031371    45.659392    46.328611    48.091681    48.905374    49.653345    49.974887    52.215107    53.142242    92.233384 
    92     1.066641  -18.096245   -11.130102    -7.946977     1.756441     4.928604    11.122480    13.323275    14.635318    15.636469    18.213778    21.702364    23.577599    25.753336    30.184022    32.540188    33.185008    34.616047    36.223063    38.464559    39.301871    39.410068    40.572480    41.778470    43.123517    43.922134    44.203110    45.038773    45.774036    46.158857    48.176818    49.057088    49.618544    50.012565    51.918299    52.896885    94.334225 
    93     1.082035  -20.087438   -12.627747    -8.855681     0.203676     4.037555     9.683141    13.097508    14.184862    15.832382    18.205260    21.687759    23.604788    25.716204    30.627883    32.702353    33.467174    34.959484    36.191014    38.492095    39.238852    39.433091    40.376219    41.644535    43.209373    43.797336    44.209470    45.026337    45.857028    46.026062    48.244784    49.112309    49.646514    50.065120    51.623301    52.618823    96.227003 
    94     1.097429  -21.821509   -13.878631    -9.497076    -1.169067     3.176779     8.252687    12.927543    13.781890    16.023262    18.220374    21.710274    23.672803    25.725577    31.061974    32.840070    33.765333    35.287696    36.126743    38.493918    39.078273    39.487072    40.176401    41.539164    43.296370    43.657040    44.266972    45.000587    45.738838    46.104802    48.292181    49.082690    49.719005    50.137177    51.346391    52.317366    97.896914 
    95     1.112823  -23.291738   -14.908496    -9.940239    -1.319324     2.370268     6.841271    12.805361    13.433320    16.193772    18.252398    21.763065    23.768925    25.762994    31.474852    32.964484    34.058707    35.598315    36.038965    38.463419    38.876892    39.526659    39.961977    41.477695    43.331655    43.591554    44.322032    44.965538    45.572903    46.255996    48.315415    49.014439    49.789996    50.226902    51.102523    52.005593    99.331263 
    96     1.128217  -24.494939   -15.733608   -10.238666    -1.233006     1.647574     5.449284    12.722208    13.143058    16.335927    18.294104    21.835940    23.879217    25.813677    31.853599    33.077207    34.334005    35.871902    35.954498    38.388299    38.669548    39.536057    39.748372    41.457015    43.275120    43.641568    44.356238    44.925343    45.431727    46.423480    48.311832    48.935092    49.842551    50.322168    50.904626    51.699784   100.519339 
    97     1.143611  -25.430207   -16.365137   -10.433429    -1.016655     1.039154     4.073396    12.669219    12.914141    16.446096    18.337721    21.915560    23.988469    25.865861    32.182369    33.175077    34.579423    35.816781    36.171859    38.241805    38.510407    39.424326    39.648159    41.462012    43.199827    43.726085    44.361371    44.887901    45.331155    46.597461    48.281829    48.857084    49.878481    50.407528    50.762966    51.418573   101.452425 
    98     1.159004  -26.097666   -16.811006   -10.554037    -0.719664     0.568123     2.709311    12.638137    12.748975    16.523645    18.375621    21.987010    24.081094    25.910270    32.441648    33.252440    34.781337    35.715167    36.411773    38.043461    38.414781    39.239261    39.646473    41.476629    43.140986    43.800225    44.341918    44.862299    45.270442    46.762380    48.232039    48.789428    49.901987    50.471266    50.682974    51.182130   102.123739 
    99     1.174398  -26.497861   -17.076484   -10.619553    -0.372463     0.236001     1.352813    12.622044    12.649531    16.569419    18.401298    22.036478    24.143196    25.939926    32.609740    33.302764    34.921087    35.635832    36.596826    37.868575    38.358482    39.104234    39.653292    41.489473    43.105131    43.849060    44.316527    44.850050    45.239880    46.889100    48.180550    48.742501    49.915513    50.508696    50.657397    51.014137   102.528460 
   100     1.189792  -26.631202   -17.164634   -10.640314     0.000000     0.000000     0.000000    12.612857    12.620594    16.584519    18.410373    22.054158    24.165053    25.950341    32.668234    33.320332    34.973010    35.604167    36.671833    37.794993    38.338831    39.055795    39.656131    41.494395    43.093179    43.866021    44.305344    44.846789    45.230756    46.938394    48.157427    48.725640    49.919964    50.521366    50.656802    50.949321   102.663697 
   101     1.189792  -26.631202   -17.164634   -10.640314     0.000000     0.000000     0.000000    12.612857    12.620594    16.584519    18.410373    22.054158    24.165053    25.950341    32.668234    33.320332    34.973010    35.604167    36.671833    37.794993    38.338831    39.055795    39.656131    41.494395    43.093179    43.866021    44.305344    44.846789    45.230756    46.938394    48.157427    48.725640    49.919964    50.521366    50.656802    50.949321   102.663697 
   102     1.200677  -26.565455   -17.127415   -10.605272    -0.340107     0.174526     0.911837    12.611097    12.632570    16.581891    18.401719    22.046508    24.151465    25.943125    32.652278    33.306012    34.943999    35.624760    36.638272    37.830947    38.346692    39.073053    39.661004    41.491060    43.089633    43.864471    44.312101    44.850137    45.230780    46.924149    48.156498    48.733290    49.917386    50.513643    50.657211    50.988064   102.596190 
   103     1.211562  -26.368190   -17.015747   -10.499543    -0.674343     0.367500     1.824488    12.600137    12.674674    16.573894    18.376650    22.024365    24.112213    25.921800    32.605215    33.264280    34.865073    35.677625    36.548833    37.925718    38.369987    39.122695    39.676055    41.481675    43.079665    43.860256    44.330202    44.861295    45.231276    46.883595    48.152778    48.754118    49.909587    50.492950    50.670390    51.089864   102.393941 
   104     1.222447  -26.039371   -16.829616   -10.321340    -0.995779     0.593832     2.738717    12.582953    12.745293    16.560319    18.337745    21.989998    24.051562    25.887322    32.529017    33.198497    34.750627    35.745852    36.425126    38.052016    38.408855    39.198038    39.703194    41.468049    43.065184    43.854553    44.353758    44.883165    45.233595    46.822225    48.143591    48.783601    49.896036    50.461484    50.714726    51.233483   102.057720 
   105     1.233332  -25.578897   -16.568935   -10.067755    -1.295262     0.863356     3.655161    12.562596    12.843659    16.540841    18.289046    21.947175    23.975724    25.841300    32.425977    33.113855    34.611187    35.813780    36.286032    38.180980    38.466828    39.286832    39.747108    41.453370    43.048956    43.848974    44.375083    44.918487    45.240314    46.746609    48.125267    48.818352    49.875505    50.419182    50.800235    51.406051   101.588803 
   106     1.244217  -24.986694   -16.233619    -9.734916    -1.559952     1.181313     4.574247    12.542945    12.969002    16.515177    18.235759    21.900980    23.891702    25.785943    32.297980    33.016543    34.453199    35.859479    36.154205    38.284144    38.551953    39.371597    39.816078    41.442175    43.034202    43.845291    44.387642    44.966343    45.256060    46.662650    48.094185    48.858038    49.845899    50.367520    50.926930    51.600154   100.988988 
   107     1.255103  -24.262700   -15.823493    -9.318317    -1.771053     1.549717     5.496038    12.528935    13.120221    16.483178    18.183849    21.857649    23.806342    25.724151    32.146402    32.912884    34.280916    35.825410    36.086338    38.347138    38.661427    39.435757    39.917357    41.440030    43.024370    43.845205    44.388386    45.019283    45.288034    46.575009    48.048164    48.904246    49.804316    50.310043    51.088166    51.810746   100.260580 
   108     1.265988  -23.406953   -15.338223    -8.813591    -1.899351     1.968775     6.420022    12.526369    13.295665    16.445030    18.139489    21.824274    23.725420    25.659570    31.972558    32.808356    34.097463    35.691958    36.100744    38.376434    38.773604    39.473918    40.048404    41.452676    43.022833    43.850251    44.377649    45.065999    45.343416    46.487194    47.986967    48.958437    49.747087    50.251636    51.274508    52.033637    99.406408 
   109     1.276873  -22.419613   -14.777263    -8.218285    -1.894030     2.438197     7.344796    12.541792    13.493029    16.401401    18.108630    21.808516    23.653314    25.596675    31.778219    32.706804    33.905158    35.521063    36.134331    38.379410    38.868288    39.491126    40.198916    41.484638    43.032652    43.861644    44.357478    45.100961    45.421189    46.402416    47.912021    49.020775    49.670541    50.197407    51.476298    52.264823    98.429805 
   110     1.287758  -21.301115   -14.139683    -7.536020    -1.644710     2.958563     8.267630    12.582271    13.709076    16.353644    18.096679    21.818236    23.592923    25.540897    31.565829    32.610261    33.705786    35.336817    36.162238    38.358532    38.934220    39.494536    40.358751    41.537937    43.056221    43.880378    44.330723    45.126873    45.510169    46.324668    47.825533    49.090179    49.572424    50.151162    51.684944    52.500112    97.334640 
   111     1.298643  -20.052190   -13.423848    -6.785129    -0.664182     3.533244     9.183853    12.655506    13.939518    16.303891    18.108122    21.861170    23.545872    25.498867    31.338325    32.519123    33.500822    35.146074    36.177302    38.314618    38.967844    39.489329    40.520111    41.611668    43.094741    43.907095    44.301054    45.147590    45.595182    46.260645    47.729696    49.164765    49.452994    50.114353    51.893205    52.734980    96.125289 
   112     1.309528  -18.673992   -12.626830    -6.009504     1.952999     4.171450    10.085959    12.770300    14.178812    16.255018    18.146296    21.944386    23.512807    25.478671    31.098784    32.432313    33.291791    34.952665    36.176037    38.249157    38.971886    39.477984    40.676288    41.702830    43.147631    43.941934    44.273717    45.164377    45.659119    46.221839    47.626371    49.239922    49.316926    50.086457    52.095231    52.964715    94.806688 
   113     1.320413  -17.168254   -11.743066    -5.267628     3.215290     4.890960    10.961932    12.938181    14.420238    16.210521    18.213121    22.073424    23.493726    25.490214    30.850204    32.346816    33.081187    34.760161    36.155965    38.165061    38.952979    39.460689    40.820948    41.807581    43.211791    43.983851    44.256880    45.175845    45.686060    46.221777    47.516996    49.154078    49.326695    50.066186    52.286284    53.184568    93.384265 
   114     1.331298  -15.537732   -10.761205    -4.575390     4.300677     5.706513    11.791170    13.177859    14.656345    16.174332    18.308920    22.250343    23.488346    25.545657    30.595350    32.256224    32.874276    34.572716    36.115238    38.066534    38.918475    39.436860    40.948486    41.921791    43.281120    44.030034    44.262794    45.178312    45.674815    46.262331    47.402662    48.984920    49.405708    50.052201    52.462521    53.390065    91.864072 
   115     1.342183  -13.788622    -9.655515    -3.869200     5.228025     6.588321    12.535494    13.524643    14.879844    16.150490    18.432516    22.470780    23.496404    25.659682    30.336852    32.147679    32.682442    34.395337    36.052801    37.958337    38.874437    39.406150    41.054936    42.040775    43.347016    44.078411    44.304811    45.166137    45.642778    46.329826    47.284149    48.803524    49.483951    50.043411    52.620856    53.577176    90.252716 
   116     1.353068  -11.940158    -8.360837    -3.018276     6.053657     7.462796    13.147633    14.022250    15.084919    16.142853    18.582098    22.720823    23.518089    25.848317    30.077226    32.001470    32.523562    34.234101    35.968916    37.844684    38.825217    39.368758    41.138374    42.158754    43.401369    44.134859    44.387196    45.133555    45.609961    46.409607    47.162091    48.613066    49.559368    50.038936    52.758871    53.742540    88.557426 
   117     1.363953  -10.054174    -6.696529    -1.688301     6.834185     8.276599    13.651388    14.641145    15.269240    16.154892    18.756785    22.976928    23.554402    26.124743    29.819198    31.805197    32.407901    34.096360    35.865616    37.728577    38.773704    39.325241    41.198480    42.269208    43.441464    44.209520    44.502943    45.079488    45.588177    46.492860    47.037045    48.416050    49.630620    50.038130    52.874792    53.883592    86.786074 
   118     1.374838   -8.260575    -4.113266     2.061887     7.598998     9.016675    14.126703    15.274125    15.452582    16.189494    18.958365    23.211610    23.607565    26.490422    29.566391    31.566721    32.324921    33.990592    35.747290    37.611540    38.721657    39.276380    41.235488    42.366136    43.471839    44.306212    44.636879    45.015340    45.579747    46.574959    46.909693    48.215128    49.696540    50.040485    52.967504    53.998596    84.947290 
   119     1.385724   -6.634695     2.854547     4.100024     8.359892     9.700038    14.615320    15.542244    15.963528    16.249352    19.191844    23.403444    23.680143    26.925357    29.325027    31.300921    32.256732    33.925404    35.621301    37.493908    38.669808    39.223032    41.249311    42.446090    43.499982    44.421538    44.738679    44.993557    45.581681    46.651951    46.782105    48.013263    49.756050    50.045618    53.036549    54.086672    83.050445 
   120     1.396609   -5.077420     4.256935     6.563919     9.115437    10.370655    15.124481    15.669299    16.331427    16.567125    19.464153    23.547955    23.768379    27.382483    29.109512    31.019040    32.189547    33.906125    35.499355    37.375494    38.617886    39.166075    41.239281    42.509766    43.530419    44.540113    44.727942    45.107879    45.590422    46.640408    46.736530    47.814325    49.808085    50.053243    53.082186    54.147819    81.105844 
   121     1.407494   -3.380147     5.189277     8.118722     9.831944    11.091180    15.644020    15.787006    16.448228    17.124700    19.780637    23.661161    23.855376    27.777781    28.961505    30.728951    32.115209    33.927685    35.400307    37.256362    38.564661    39.106466    41.204468    42.561888    43.562047    44.562032    44.766215    45.293465    45.604580    46.511618    46.799685    47.624078    49.851639    50.063112    53.105320    54.182880    79.124755 
   122     1.418379    0.208933     6.008484     9.126292    10.450473    11.872082    15.910651    16.140659    16.620102    17.636626    20.140849    23.761697    23.923602    27.972244    28.979742    30.436978    32.031101    33.965685    35.353405    37.137713    38.507928    39.045245    41.144449    42.608975    43.588752    44.477317    44.914644    45.485001    45.635414    46.379765    46.851645    47.453357    49.885833    50.074989    53.107490    54.193443    77.119589 
   123     1.429264    3.014899     6.759609     9.835014    10.969331    12.621325    16.055658    16.506077    16.946243    18.109077    20.536097    23.856281    23.966103    27.918300    29.182363    30.148750    31.939529    33.977661    35.391765    37.023218    38.444809    38.983614    41.059895    42.656236    43.601262    44.386501    45.087162    45.578234    45.771110    46.249784    46.870961    47.325720    49.909996    50.088515    53.090802    54.181789    75.104059 
   124     1.440149    3.995750     7.458918    10.374733    11.430070    13.247313    16.221990    16.743251    17.424608    18.557066    20.951529    23.925375    23.999962    27.747778    29.420603    29.871369    31.846061    33.930797    35.520791    36.921889    38.372318    38.922839    40.952739    42.705382    43.590054    44.313837    45.267590    45.588128    45.981306    46.130850    46.828176    47.276537    49.923770    50.103182    53.057799    54.150794    73.093314 
   125     1.451034    4.566684     8.113365    10.804723    11.863862    13.718362    16.388036    16.988446    17.924408    19.000245    21.371077    23.913064    24.076556    27.545827    29.535731    29.681184    31.757700    33.826492    35.690259    36.853712    38.288309    38.864308    40.825796    42.753090    43.551756    44.269253    45.448105    45.571490    45.997373    46.230084    46.732959    47.303949    49.926994    50.118593    53.011344    54.103731    71.104117 
   126     1.461919    4.890788     8.726179    11.156740    12.284323    14.049810    16.524823    17.285044    18.391764    19.456777    21.782555    23.844268    24.165041    27.344768    29.311910    29.772805    31.680882    33.684461    35.811871    36.851914    38.192894    38.809745    40.682128    42.789478    43.496821    44.252330    45.522480    45.618528    45.911939    46.454612    46.632300    47.374779    49.919679    50.134598    52.954437    54.044196    69.154891 
   127     1.472804    5.032854     9.299163    11.452139    12.694238    14.279087    16.624664    17.614632    18.805249    19.932674    22.180729    23.731855    24.246558    27.160621    29.062313    29.832266    31.619338    33.522407    35.818504    36.926811    38.090227    38.761925    40.524413    42.797735    43.448865    44.255157    45.431355    45.742979    45.888271    46.516825    46.710854    47.472574    49.902173    50.151385    52.889980    53.975834    67.265647 
   128     1.483689    5.026090     9.833584    11.706183    13.091619    14.443484    16.694043    17.940402    19.161010    20.414361    22.568203    23.579955    24.313705    27.001865    28.818630    29.835576    31.572300    33.351761    35.716679    37.019337    37.989654    38.725500    40.354511    42.762301    43.430368    44.268758    45.302924    45.757224    45.982087    46.456000    46.934005    47.595166    49.875592    50.169300    52.820662    53.902227    65.457584 
   129     1.494574    4.888746    10.330474    11.929414    13.472969    14.570378    16.739594    18.232449    19.463124    20.874587    22.946888    23.404696    24.360186    26.868388    28.582932    29.794576    31.534462    33.179143    35.541074    37.053320    37.900922    38.705849    40.173202    42.685421    43.442493    44.286338    45.152648    45.742694    46.091859    46.425600    47.148689    47.746434    49.842241    50.188679    52.748717    53.826624    63.752339 
   130     1.505459    4.628889    10.790751    12.128853    13.834234    14.677298    16.765828    18.471061    19.712188    21.285742    23.106971    23.443316    24.380555    26.746924    28.360462    29.725110    31.498396    33.007592    35.312046    36.998868    37.819355    38.703642    39.980339    42.585221    43.466458    44.303112    44.995169    45.733123    46.163990    46.440441    47.341527    47.931003    49.805866    50.209830    52.675817    53.751814    62.170564 
   131     1.516345    4.244059    11.215241    12.309127    14.170728    14.775155    16.776044    18.644013    19.899918    21.631708    22.911169    23.858550    24.372360    26.605860    28.166805    29.643457    31.457396    32.837120    35.039736    36.875545    37.725279    38.709308    39.775512    42.478895    43.480716    44.315548    44.843231    45.732924    46.190572    46.500112    47.506322    48.148141    49.771659    50.233001    52.602978    53.680017    60.730053 
   132     1.527230    3.715467    11.604617    12.473417    14.475905    14.872108    16.773093    18.743594    20.011265    21.911667    22.700899    24.259204    24.398037    26.397772    28.030750    29.564841    31.407556    32.665283    34.735154    36.716640    37.605279    38.706978    39.559129    42.376004    43.469359    44.320730    44.707696    45.743276    46.190274    46.583477    47.643072    48.389766    49.745847    50.258368    52.530599    53.612795    59.443575 
   133     1.538115    2.987459    11.959113    12.624363    14.736511    14.980156    16.759480    18.764361    20.033135    22.125099    22.521971    24.228618    24.818837    26.093971    27.979620    29.502876    31.348318    32.488860    34.416389    36.546019    37.457991    38.683062    39.333870    42.279548    43.424454    44.316353    44.595507    45.763398    46.178050    46.676362    47.754244    48.644979    49.734850    50.286052    52.458430    53.551115    58.317043 
   134     1.549000    1.860420    12.277739    12.765353    14.924204    15.124519    16.736903    18.702743    19.964760    22.193251    22.454601    24.119987    25.109409    25.838684    28.017719    29.469203    31.282187    32.307204    34.107134    36.375720    37.287072    38.628486    39.106367    42.188633    43.346768    44.301017    44.507134    45.790674    46.160147    46.775174    47.841787    48.904209    49.743937    50.316130    52.385728    53.495362    57.348759 
   135     1.559885   -1.590444    12.555988    12.903194    15.040336    15.299789    16.705028    18.558802    19.816554    22.043371    22.521079    23.969921    24.822123    26.079986    28.132550    29.473170    31.213924    32.125673    33.828154    36.209252    37.096775    38.534038    38.890034    42.101079    43.243071    44.274808    44.437482    45.821545    46.140236    46.879318    47.907434    49.159979    49.776185    50.348538    52.311353    53.445522    56.530045 
   136     1.570770   -3.002803    12.781483    13.052701    15.123824    15.462575    16.658982    18.336059    19.593861    21.777397    22.486600    23.766978    24.417216    26.509131    28.312965    29.521510    31.149814    31.955312    33.589120    36.044829    36.890757    38.388473    38.704101    42.015309    43.120913    44.239585    44.379509    45.852602    46.121415    46.987874    47.953493    49.406228    49.832100    50.383154    52.233977    53.401310    55.847113 
   137     1.581655   -3.998464    12.942719    13.228269    15.187426    15.594948    16.584519    18.027101    19.284209    21.359064    22.225200    23.616256    24.207727    26.929262    28.552172    29.618735    31.096577    31.807689    33.388211    35.877704    36.671933    38.197494    38.552424    41.931189    42.985341    44.198610    44.327437    45.881452    46.106079    47.098861    47.983012    49.636831    49.911050    50.419666    52.152323    53.362257    55.283587 
   138     1.592540   -4.840652    13.055776    13.416756    15.226951    15.688603    16.440926    17.578752    18.894391    20.812870    21.850235    23.606238    24.133290    27.310538    28.838356    29.768652    31.060052    31.690193    33.217961    35.701814    36.442619    37.988923    38.417050    41.849722    42.838884    44.155601    44.277882    45.907042    46.095305    47.209538    47.999316    49.841807    50.015677    50.457690    52.065463    53.327852    54.822580 
   139     1.603425   -5.596767    13.143752    13.596986    15.218173    15.654446    16.116904    17.014631    18.543403    20.310342    21.471687    23.660393    24.120966    27.655847    29.145603    29.976008    31.043551    31.606122    33.070983    35.510996    36.204664    37.785571    38.284280    41.772445    42.683053    44.113708    44.229518    45.929420    46.088784    47.317029    48.005490    50.004568    50.155514    50.496682    51.973147    53.297613    54.448173 
   140     1.614310   -6.293126    13.214421    13.752543    14.594926    15.295710    15.987816    16.685836    18.329848    19.919581    21.091428    23.731508    24.136873    27.980228    29.440167    30.242131    31.046886    31.558192    32.942850    35.300280    35.959668    37.599935    38.148968    41.700809    42.519834    44.075076    44.182306    45.949294    46.085250    47.418655    48.004101    50.129466    50.319849    50.536194    51.876071    53.271082    54.146058 
   141     1.625195   -6.939815    12.819036    13.352782    13.914610    15.228463    16.046310    16.541188    18.220547    19.599440    20.706718    23.806069    24.161892    28.298807    29.700971    30.549589    31.066586    31.553084    32.833388    35.066912    35.709253    37.438241    38.009553    41.635906    42.352250    44.040820    44.136768    45.967408    46.083180    47.512372    47.997196    50.237799    50.480589    50.577095    51.776007    53.247897    53.903739 
   142     1.636080   -7.538547    10.774621    13.387906    14.007074    15.184339    16.128571    16.465871    18.166864    19.310790    20.323186    23.880296    24.185832    28.621155    29.927892    30.847737    31.102974    31.604610    32.748474    34.811018    35.455304    37.302532    37.865686    41.578379    42.184369    44.011239    44.093648    45.984194    46.081320    47.596715    47.986459    50.337008    50.595593    50.649202    51.675670    53.227751    53.710504 
   143     1.646966   -8.086338     8.296367    13.455735    14.054522    15.179504    16.217601    16.431764    18.135732    19.036174    19.949833    23.952105    24.204591    28.951041    30.128975    31.025747    31.203001    31.727213    32.703866    34.535918    35.200042    37.191930    37.717518    41.528477    42.020889    43.986195    44.053727    45.999766    46.078928    47.670806    47.973280    50.427526    50.636928    50.775897    51.578408    53.210393    53.557314 
   144     1.657851   -8.577776     5.072790    13.524210    14.046277    15.239237    16.300147    16.434256    18.098836    18.777329    19.596130    24.019526    24.217559    29.288031    30.310804    31.066264    31.347128    31.898802    32.728674    34.248533    34.946007    37.103879    37.565940    41.486150    41.866819    43.965292    44.017686    46.013974    46.075741    47.734308    47.958948    50.508299    50.667588    50.891980    51.487729    53.195640    53.436818 
   145     1.668736   -9.006578    -3.450887    13.588902    13.995978    15.365808    16.349453    16.488311    18.015484    18.562298    19.270521    24.080524    24.225618    29.628753    30.477631    31.076529    31.436617    32.059368    32.843418    33.962498    34.696361    37.035231    37.413097    41.451188    41.727044    43.948170    43.986145    46.026571    46.071861    47.787223    47.944579    50.578162    50.692670    50.990990    51.406956    53.183353    53.343176 
   146     1.679621   -9.366629    -6.584462    13.646392    13.927392    15.545765    16.369166    16.580949    17.838366    18.434809    18.979999    24.133240    24.230143    29.967330    30.632210    31.079430    31.459603    32.199057    32.996186    33.713609    34.455455    36.983023    37.263305    41.423255    41.606051    43.934495    43.959613    46.037258    46.067658    47.829773    47.931226    50.636222    50.712184    51.072148    51.338804    53.173410    53.271888 
   147     1.690506   -9.652602    -8.255978    13.693789    13.859885    15.764045    16.380535    16.681707    17.582112    18.382874    18.731456    24.176026    24.232387    30.294711    30.775704    31.079753    31.422037    32.340493    33.030454    33.610482    34.230407    36.944788    37.124174    41.401993    41.507735    43.924031    43.938524    46.045825    46.063604    47.862343    47.919807    50.681834    50.726132    51.135266    51.285195    53.165748    53.219593 
   148     1.701391   -9.860272    -9.276858    13.729012    13.805384    16.006537    16.388643    16.773911    17.296685    18.364352    18.534526    24.207603    24.233329    30.597173    30.905474    31.079009    31.339069    32.480838    32.879521    33.691714    34.034147    36.918665    37.007336    41.387053    41.435145    43.916617    43.923200    46.052073    46.060231    47.885304    47.911054    50.714627    50.735009    51.180333    51.247034    53.160306    53.183825 
   149     1.712276   -9.986622    -9.843697    13.750709    13.770409    16.250183    16.393751    16.841480    17.023297    18.358053    18.403901    24.227019    24.233639    30.856799    31.009208    31.076765    31.221288    32.593338    32.711168    33.793452    33.890479    36.903403    36.927493    41.378176    41.390525    43.912191    43.913877    46.055880    46.057987    47.898991    47.905537    50.734426    50.739708    51.207447    51.224321    53.157045    53.162934 
   150     1.723161  -10.029737   -10.029494    13.758222    13.758234    16.395586    16.395611    16.867367    16.867516    18.356590    18.356603    24.233726    24.233751    31.061007    31.061007    31.067541    31.067553    32.639248    32.639248    33.834427    33.834427    36.898295    36.898295    41.375176    41.375188    43.910654    43.910666    46.057144    46.057169    47.903591    47.903603    50.741133    50.741146    51.216622    51.216646    53.155879    53.155917 
